activity,time_ms,ax,ay,az,gx,gy,gz,ax_ema,ay_ema,az_ema,gx_ema,gy_ema,gz_ema,ax_median,ay_median,az_median,gx_median,gy_median,gz_median,ax_lp,ay_lp,az_lp,gx_lp,gy_lp,gz_lp,ax_outlier,ay_outlier,az_outlier,gx_outlier,gy_outlier,gz_outlier,q0,q1,q2,q3
2,0.0,0.2154781494140625,8.015787158203125,-4.565742565917969,-0.02358192958801499,-0.10511944884149055,-0.002264931090374321,0.2154781494140625,8.015787158203125,-4.565742565917969,-0.02358192958801499,-0.10511944884149055,-0.002264931090374321,0.2154781494140625,8.015787158203125,-4.529829541015625,-0.002264931090374321,-0.10511944884149055,0.0,0.23505665762495406,8.137738239568282,-4.589586786856572,-0.013648258375465145,-0.13679554256189494,-0.002559033545033659,0.2154781494140625,8.015787158203125,-4.565742565917969,-0.02358192958801499,-0.10511944884149055,-0.002264931090374321,0.9999994586019545,0.000881728756950063,-0.0005524689580655644,-1.1324649320725277e-05
2,10.0,0.316034619140625,8.10197841796875,-4.529829541015625,-0.004929555902579404,-0.12963399711377732,0.015188361429568975,0.23558944335937498,8.03302541015625,-4.5585599609375,-0.019851454850927874,-0.11002235849594791,0.0012257274136143383,0.2154781494140625,8.10197841796875,-4.529829541015625,-0.004929555902579404,-0.12963399711377732,0.0,0.23435689128037077,8.144131530055954,-4.590589980838223,-0.013310750973453411,-0.13747297251791324,-0.00219174323861074,0.316034619140625,8.10197841796875,-4.529829541015625,-0.004929555902579404,-0.12963399711377732,0.015188361429568975,0.9999975060272642,0.0018562434395276723,-0.0012402682901529838,6.351466972867986e-05
2,20.0,0.24899697265624998,8.200140686035155,-4.728548278808593,-0.002264931090374321,-0.1453552835057873,0.02464777951289702,0.23827094921874997,8.066448465332032,-4.592557624511719,-0.01633415009881716,-0.11708894349791579,0.005910137833470876,0.2154781494140625,8.111555224609374,-4.565742565917969,-0.009459418083328047,-0.1453552835057873,-0.002264931090374321,0.23345428739843455,8.15235096466223,-4.59173197247063,-0.012865019035805834,-0.13817157376336725,-0.0015728141482502728,0.24899697265624998,8.200140686035155,-4.728548278808593,-0.002264931090374321,-0.1453552835057873,0.02464777951289702,0.9999939401827961,0.0028442957826924505,-0.0019989113056896337,0.00018420852008263624
2,30.0,0.08379705810546874,8.111555224609374,-4.446032482910156,-0.009459418083328047,-0.17546554388370475,-0.003863705977697371,0.20737617099609373,8.0754698171875,-4.563252596191407,-0.014959203695719339,-0.1287642635750736,0.003955369071237227,0.24899697265624998,8.154650854492187,-4.61602080078125,-0.009459418083328047,-0.15135068933324874,-0.003863705977697371,0.23260121053940525,8.161945701012595,-4.592849122956128,-0.012264491524441215,-0.13868701599175698,-0.0004542296518191739,0.08379705810546874,8.111555224609374,-4.446032482910156,-0.009459418083328047,-0.17546554388370475,-0.003863705977697371,0.999988606504316,0.0037970927953806443,-0.002888466767421744,0.0001603358759510276
2,40.0,0.181959326171875,8.154650854492187,-4.6447512207031245,-0.01785298624177406,-0.17919601862079187,-0.029177641693645662,0.20229280203125,8.091306024648437,-4.57955232109375,-0.015537960204930285,-0.13885061458421727,-0.002671233081739351,0.24899697265624998,8.192958081054687,-4.6447512207031245,-0.01785298624177406,-0.15135068933324874,-0.02811179176876363,0.23189599751801337,8.172324527064443,-4.593788936681269,-0.01140472568645886,-0.13892034963982292,0.0015270580343839761,0.181959326171875,8.154650854492187,-4.6447512207031245,-0.01785298624177406,-0.17919601862079187,-0.029177641693645662,0.9999816620995976,0.004708022038014559,-0.0038091900765783045,7.998534268768426e-06
2,50.0,0.3184288208007812,8.238447912597655,-4.61602080078125,-0.03570597248354812,-0.15135068933324874,-0.03877029101758397,0.22552000578515624,8.12073440223828,-4.586846017031251,-0.019571562660653852,-0.14135062953402358,-0.009891044668908274,0.25139117431640623,8.190563879394531,-4.6447512207031245,-0.01785298624177406,-0.15135068933324874,-0.02811179176876363,0.23089504826250168,8.182790274802832,-4.594292682867927,-0.010171031426188207,-0.1390337716122848,0.004693522040883952,0.3184288208007812,8.238447912597655,-4.61602080078125,-0.03570597248354812,-0.15135068933324874,-0.03877029101758397,0.9999740794995224,0.005529255498136078,-0.004607618138604018,-0.00019369514158885725
2,60.0,0.37828386230468747,8.192958081054687,-4.671087438964843,-0.036238897445989134,-0.11004900474406995,-0.02811179176876363,0.2560727770890625,8.135179138001563,-4.60369430141797,-0.02290502961772091,-0.13509030457603285,-0.013535194088879345,0.25139117431640623,8.190563879394531,-4.661510632324219,-0.01785298624177406,-0.11004900474406995,-0.02811179176876363,0.22891576459635377,8.192622588065746,-4.594113719151908,-0.008541039608067888,-0.13945114805615666,0.009126781890372988,0.23702596435546874,8.192958081054687,-4.671087438964843,-0.036238897445989134,-0.11004900474406995,-0.02811179176876363,0.9999662346777637,0.006347193542413758,-0.005208202302778641,-0.00034244311092039293
2,70.0,0.25139117431640623,8.190563879394531,-4.661510632324219,-0.01532159267017923,-0.09725880564548554,0.014122511504686942,0.25513645653453126,8.146256086280157,-4.61525756759922,-0.021388342228212575,-0.1275240047899234,-0.008003652970166088,0.25139117431640623,8.192958081054687,-4.661510632324219,-0.01532159267017923,-0.10658499248820334,0.014122511504686942,0.22577881365980879,8.201229194461298,-4.593359973937426,-0.006678419164993517,-0.14066604949246359,0.014570897844639712,0.25139117431640623,8.190563879394531,-4.661510632324219,-0.01532159267017923,-0.09725880564548554,0.014122511504686942,0.9999571137592052,0.0072692515474265485,-0.0057314974005487265,-0.00028028886411892465
2,80.0,0.23702596435546874,8.123526232910155,-4.666299035644531,0.0009326186842717792,-0.09152986229924462,0.03637212868659939,0.25151435809871875,8.141710115606157,-4.625465861208283,-0.016924150045715704,-0.12032517629178766,0.0008715033611870083,0.23702596435546874,8.192958081054687,-4.661510632324219,0.0009326186842717792,-0.10658499248820334,0.024781010753507277,0.22213159137498792,8.20806801795228,-4.592734609995361,-0.004937814003719058,-0.14297574331513138,0.02050945348770991,0.23702596435546874,8.123526232910155,-4.666299035644531,0.0009326186842717792,-0.09152986229924462,0.03637212868659939,0.9999463983315621,0.008271938538371926,-0.006226074503489725,-0.00010720462241140106
2,90.0,0.16759411621093748,8.271966735839843,-4.517858532714843,0.020384379813368887,-0.10658499248820334,0.04290045947650185,0.23473030972116252,8.167761439652896,-4.603944395509595,-0.009462444073898787,-0.1175771395310708,0.009277294584249977,0.23702596435546874,8.2360537109375,-4.517858532714843,0.017719755001163805,-0.10658499248820334,0.03637212868659939,0.21915431106333683,8.212417251344677,-4.593543082546253,-0.0037623189779013174,-0.14629285887307836,0.026353594419575424,0.16759411621093748,8.271966735839843,-4.517858532714843,0.020384379813368887,-0.10658499248820334,0.04290045947650185,0.999933041437468,0.009371887338259754,-0.006787551943995353,9.750867398338393e-05
2,100.0,0.00718260498046875,8.2360537109375,-4.491522314453125,0.0255803981971688,-0.1505513018895872,0.024781010753507277,0.1892207687730238,8.181419893909817,-4.581459979298302,-0.0024538756196852696,-0.12417197200277409,0.012378037818101437,0.22026655273437498,8.271966735839843,-4.517858532714843,0.017719755001163805,-0.1505513018895872,0.04290045947650185,0.21797945206311445,8.213373412851592,-4.597331496648334,-0.003532948217703496,-0.150108342239717,0.03158716498790898,0.239420166015625,8.2360537109375,-4.491522314453125,0.0255803981971688,-0.1505513018895872,0.024781010753507277,0.9999163668929978,0.010498714548701034,-0.007549353505324619,0.00020850415863777537
2,110.0,0.239420166015625,8.288726147460936,-4.469974499511719,0.017719755001163805,-0.1787963248989611,0.045831546769927435,0.19926064822154405,8.202881144620042,-4.559162883340985,0.0015808505044845457,-0.13509684258201152,0.01906873960846664,0.22026655273437498,8.271966735839843,-4.517858532714843,0.017719755001163805,-0.1773307812522483,0.045831546769927435,0.2190806162016784,8.210144887422032,-4.605236795012694,-0.004442977038681074,-0.15362335626442286,0.035785322573759035,0.239420166015625,8.288726147460936,-4.469974499511719,0.017719755001163805,-0.1787963248989611,0.045831546769927435,0.9998968315286907,0.011584767429064748,-0.008481838486062746,0.0004217563231179964
2,120.0,0.22026655273437498,8.29351455078125,-4.541800549316406,0.0095926493239383,-0.1773307812522483,0.05489127113142472,0.20346182912411026,8.221007825852285,-4.55569041653607,0.0031832102683752965,-0.14354363031605888,0.026233245913058256,0.239420166015625,8.257601525878906,-4.541800549316406,0.0095926493239383,-0.1787963248989611,0.045831546769927435,0.22206514644549377,8.202377541628223,-4.617464106124565,-0.006445401720993036,-0.15598520790709902,0.03858470901979873,0.22026655273437498,8.29351455078125,-4.541800549316406,0.0095926493239383,-0.1773307812522483,0.05489127113142472,0.9998757677071914,0.012629761500461361,-0.00940628896535835,0.0006782361656256081
2,130.0,0.24660277099609373,8.257601525878906,-4.563348364257812,-0.007327718233563979,-0.18492496196703279,0.0604869832370554,0.21209001749850695,8.228326565857609,-4.557222006080418,0.0010810245679874417,-0.15181989664625367,0.03308399337785768,0.239420166015625,8.257601525878906,-4.560954162597656,-0.007327718233563979,-0.1787963248989611,0.05489127113142472,0.22606252617959915,8.190380215235455,-4.633159490201798,-0.009279461431347868,-0.1564840055279259,0.039707301216804505,0.24660277099609373,8.257601525878906,-4.563348364257812,-0.007327718233563979,-0.18492496196703279,0.0604869832370554,0.9998533856335616,0.013589680559251659,-0.010373370668505928,0.0009596876447192509
2,140.0,0.2657563842773437,8.219294299316406,-4.560954162597656,-0.020917304775809904,-0.18279326211726873,0.03424042883683532,0.22282329085427433,8.226520112549368,-4.557968437383866,-0.0033186413007720273,-0.1580145697404567,0.03331528046965321,0.2346317626953125,8.226476904296874,-4.563348364257812,-0.020917304775809904,-0.1773307812522483,0.05489127113142472,0.2301880792066756,8.175214875942894,-4.650544157829136,-0.012550084742392177,-0.15464340041053512,0.039006956324768,0.2657563842773437,8.219294299316406,-4.560954162597656,-0.020917304775809904,-0.18279326211726873,0.03424042883683532,0.9998302951818243,0.014482782362144333,-0.011331512888004032,0.0011075501549744698
2,150.0,0.2346317626953125,8.226476904296874,-4.611232397460937,-0.029577335415476427,-0.17639816256797652,0.06035375199644514,0.22518498522248195,8.226511470898869,-4.56862122939928,-0.008570380123712907,-0.16169128830596066,0.0387229747750116,0.24660277099609373,8.219294299316406,-4.611232397460937,-0.029577335415476427,-0.17639816256797652,0.06035375199644514,0.23373305243145345,8.15862980771495,-4.667039524646695,-0.015830226432420397,-0.1502513120031931,0.03646639212949423,0.2346317626953125,8.226476904296874,-4.611232397460937,-0.029577335415476427,-0.17639816256797652,0.06035375199644514,0.9998063857217663,0.015331094825111205,-0.012256958516326332,0.0013840409572893567
2,160.0,0.22026655273437498,8.104372619628906,-4.800374328613281,-0.03996937218307625,-0.16827105689075103,0.04343338443894286,0.22420129872486058,8.202083700644877,-4.614971849242081,-0.014850178535585576,-0.16300724202291872,0.03966505670779785,0.258573779296875,8.104372619628906,-4.800374328613281,-0.03943644722063523,-0.16827105689075103,0.04343338443894286,0.23616581731039515,8.142912813439255,-4.679441025437243,-0.018757380344321433,-0.14336845558537686,0.032180106272303916,0.22026655273437498,8.104372619628906,-4.800374328613281,-0.03996937218307625,-0.16827105689075103,0.04343338443894286,0.9997823341583049,0.016128334241906225,-0.013140897960704315,0.0015741474960830988
2,170.0,0.258573779296875,8.10197841796875,-4.886565588378906,-0.04929555902579404,-0.1564134764764384,0.06701531402695785,0.23107579483926347,8.182062644109653,-4.6692905970694465,-0.02173925463362727,-0.16168848891362267,0.045135108171629856,0.258573779296875,8.10197841796875,-4.814739538574218,-0.03943644722063523,-0.1564134764764384,0.04343338443894286,0.23703412903405224,8.130646073032718,-4.684495507226613,-0.021111908661684737,-0.13431961227100458,0.02638775974525825,0.258573779296875,8.10197841796875,-4.886565588378906,-0.04929555902579404,-0.1564134764764384,0.06701531402695785,0.999758158232363,0.016876971454382973,-0.01397337592352595,0.0018808635413311767
2,180.0,0.28730419921875,7.996633544921875,-4.862623571777344,-0.03943644722063523,-0.13882695271588485,0.016653905076281773,0.24232147571516077,8.144976824272097,-4.707957192011026,-0.025278693151028864,-0.15711618167407512,0.03943886755256024,0.258573779296875,7.999027746582031,-4.814739538574218,-0.03943644722063523,-0.13882695271588485,0.016653905076281773,0.2359368998627498,8.124312261561812,-4.6798332454713085,-0.022875497653738246,-0.12367226920454179,0.01952908814593689,0.28730419921875,7.996633544921875,-4.862623571777344,-0.03943644722063523,-0.13882695271588485,0.016653905076281773,0.9997335173118993,0.017677917797543935,-0.014718545426808494,0.0019364932326929468
2,190.0,0.3495534423828125,7.905653881835937,-4.814739538574218,-0.020650842294589397,-0.1069846862100341,0.006128637068071692,0.26376786904869115,8.097112235784866,-4.729313661323665,-0.024353122979740974,-0.14708988258126693,0.03277682145566253,0.258573779296875,7.999027746582031,-4.814739538574218,-0.020650842294589397,-0.1069846862100341,0.006128637068071692,0.232717737548701,8.125771591622604,-4.664671315426891,-0.02423772162368278,-0.11219134191602476,0.012229507688776679,0.2346317626953125,7.905653881835937,-4.814739538574218,-0.020650842294589397,-0.1069846862100341,0.006128637068071692,0.9997083656055457,0.01857264878344537,-0.015312325084328655,0.0019424613167882579
2,200.0,0.2346317626953125,7.999027746582031,-4.6998178588867185,-0.012523736617363892,-0.08366921910323961,-0.019984686091538126,0.25794064777801545,8.077495337944299,-4.723414500836276,-0.021987245707265558,-0.13440574988566145,0.022224519946222404,0.2346317626953125,7.999027746582031,-4.6998178588867185,-0.012523736617363892,-0.1020551303074547,-0.000799387443661525,0.22775683244105388,8.135665725901761,-4.639917143579309,-0.025517769970920975,-0.10074639815958314,0.00518173231168694,0.2346317626953125,7.999027746582031,-4.6998178588867185,-0.012523736617363892,-0.08366921910323961,-0.019984686091538126,0.9996835794693856,0.019510431037688417,-0.015772572914227345,0.0018193305542442571
2,210.0,0.22026655273437498,8.054094384765625,-4.639962817382812,-0.0021316998497640668,-0.1020551303074547,-0.037571209852091676,0.2504058287692874,8.072815147308564,-4.706724164145584,-0.01801613653576526,-0.12793562597002012,0.010265373986559587,0.22026655273437498,8.054094384765625,-4.639962817382812,-0.010924961730040842,-0.08366921910323961,-0.019984686091538126,0.22203456217098871,8.153059577162942,-4.607803063323589,-0.027032333443985156,-0.09020386881598043,-0.0010125838482090363,0.22026655273437498,8.054094384765625,-4.639962817382812,-0.0021316998497640668,-0.1020551303074547,-0.037571209852091676,0.9996553018778034,0.02050168531663624,-0.016321079332479397,0.0016064545428308452
2,220.0,0.16759411621093748,8.157045056152343,-4.513070129394531,-0.005196018383799913,-0.041967840792230066,-0.000799387443661525,0.23384348625761744,8.08966112907732,-4.667993357195373,-0.015452112905372191,-0.1107420689344621,0.008052421700515365,0.16759411621093748,8.157045056152343,-4.601655590820312,-0.010924961730040842,-0.041967840792230066,-0.019984686091538126,0.21684823535784484,8.175606940732367,-4.571324642339669,-0.028972792448809445,-0.08136717451009506,-0.005952755288196343,0.16759411621093748,8.157045056152343,-4.513070129394531,-0.005196018383799913,-0.041967840792230066,-0.000799387443661525,0.9996308870483859,0.02147429858562596,-0.016566261709334312,0.0015821289740018184
2,230.0,0.16759411621093748,8.279149340820313,-4.601655590820312,-0.010924961730040842,-0.0302434916185277,-0.022516079663132956,0.22059361224828147,8.12755877142592,-4.6547258039203605,-0.014546682670305922,-0.09464235347127523,0.001938721427785701,0.16759411621093748,8.279149340820313,-4.513070129394531,-0.010924961730040842,-0.041967840792230066,-0.018918836166656093,0.21342649168530145,8.20010850546401,-4.533740193376784,-0.03132885427370174,-0.07491093768580459,-0.009438576824116265,0.16759411621093748,8.279149340820313,-4.601655590820312,-0.010924961730040842,-0.0302434916185277,-0.022516079663132956,0.9996072562780216,0.022419882409293435,-0.016750541686138962,0.0014496283317993938
2,240.0,0.1580173095703125,8.37012900390625,-4.383783239746093,-0.023049004625573973,-0.02904441045303541,-0.01572128639200999,0.20807835171268768,8.176072817921986,-4.600537291085508,-0.016247147061359532,-0.08152276486762726,-0.0015932801361734378,0.16759411621093748,8.322244970703125,-4.383783239746093,-0.023049004625573973,-0.041967840792230066,-0.018918836166656093,0.21266212179330812,8.223251166610037,-4.4983056076023935,-0.03387142548216996,-0.07124111557533201,-0.011393887516188259,0.1580173095703125,8.37012900390625,-4.383783239746093,-0.023049004625573973,-0.02904441045303541,-0.01572128639200999,0.9995841880823081,0.02330426923992652,-0.016927487927913775,0.001349860539468018
2,250.0,0.11731588134765625,8.322244970703125,-4.242525341796875,-0.041301684589178794,-0.04822970910091201,-0.018918836166656093,0.18992585763968142,8.205307248478213,-4.528934901227782,-0.021258054566923385,-0.0748641537142842,-0.005058391342269969,0.16759411621093748,8.348581188964843,-4.352658618164062,-0.041301684589178794,-0.04822970910091201,-0.018918836166656093,0.2149507825818824,8.242331258858488,-4.467976664096821,-0.03619482542511619,-0.07038314008827158,-0.011817299349874404,0.258573779296875,8.322244970703125,-4.242525341796875,-0.041301684589178794,-0.04822970910091201,-0.018918836166656093,0.9995609572804778,0.024097898382534816,-0.017195094091109364,0.0012299240943791797
2,260.0,0.20350714111328125,8.410830432128906,-4.309562988281249,-0.0575558959436298,-0.07540888218540386,-0.019052067407266348,0.19264211433440143,8.246411885208353,-4.485060518638475,-0.02851762284226467,-0.07497309940850813,-0.007857126555269246,0.20350714111328125,8.348581188964843,-4.352658618164062,-0.0575558959436298,-0.07540888218540386,-0.01572128639200999,0.22007925355237698,8.255685751785451,-4.44475845767994,-0.037811468356099096,-0.07201226498197583,-0.010776521947246206,0.20350714111328125,8.410830432128906,-4.309562988281249,-0.0575558959436298,-0.07540888218540386,-0.019052067407266348,0.9995364801894414,0.024810024379961867,-0.017608740003645672,0.001104416702161769
2,270.0,0.2561795776367187,8.348581188964843,-4.352658618164062,-0.07021286380160395,-0.0907304748555831,-0.011591117933092114,0.2053496069948649,8.266845745959651,-4.458580138543592,-0.03685667103413253,-0.07812457449792312,-0.00860392483083382,0.2561795776367187,8.322244970703125,-4.352658618164062,-0.0575558959436298,-0.08646707515605495,-0.013989280264076687,0.22727575383635226,8.262817295258243,-4.429170850587028,-0.03828276206050943,-0.07560384300593512,-0.00840803461617258,0.2561795776367187,8.348581188964843,-4.352658618164062,-0.012523736617363892,-0.0907304748555831,-0.011591117933092114,0.9995113851819345,0.025457928388759904,-0.018106888963324793,0.0010125936564763188
2,280.0,0.2705447875976562,8.29351455078125,-4.412513659667969,-0.0654165391396348,-0.08646707515605495,-0.010924961730040842,0.21838864311542316,8.272179506923973,-4.449366842768468,-0.04256864465523299,-0.07979307462954949,-0.009068132210675225,0.2705447875976562,8.29351455078125,-4.412513659667969,-0.0575558959436298,-0.08859877500581903,-0.011591117933092114,0.23552057685182168,8.264342146834574,-4.420386132080753,-0.037348744128706916,-0.08060549879155807,-0.004911958005587468,0.2705447875976562,8.29351455078125,-4.412513659667969,-0.010924961730040842,-0.08646707515605495,-0.010924961730040842,0.9994853370460741,0.026129498280416174,-0.018586451321700795,0.000924216844451948
2,290.0,0.2825157958984375,8.233659509277343,-4.53940634765625,-0.04849617158213252,-0.08859877500581903,-0.013989280264076687,0.23121407367202607,8.264475507394648,-4.467374743746024,-0.043754150040612894,-0.0815542147048034,-0.010052361821355518,0.28012159423828126,8.29351455078125,-4.412513659667969,-0.04849617158213252,-0.0907304748555831,-0.010924961730040842,0.24391244804714277,8.261696985563526,-4.416862818652603,-0.03500206787775707,-0.08653263470187712,-0.0005493242714454852,0.2825157958984375,8.233659509277343,-4.53940634765625,-0.0095926493239383,-0.08859877500581903,-0.013989280264076687,0.999456093181661,0.02688568169081744,-0.019078885414088517,0.0008210075683938648
2,300.0,0.28012159423828126,8.125920434570313,-4.484339709472656,-0.029577335415476427,-0.09899081177341885,0.009859111805158808,0.24099557778527714,8.236764492829781,-4.470767736891351,-0.0409187871155856,-0.0850415341185265,-0.006070067096052652,0.2825157958984375,8.29351455078125,-4.455609289550781,-0.029577335415476427,-0.09899081177341885,0.000799387443661525,0.2518596173000481,8.256589346409617,-4.417102804801147,-0.03146693876408816,-0.09297198676323692,0.004352545669021226,0.28012159423828126,8.125920434570313,-4.484339709472656,-0.029577335415476427,-0.09899081177341885,0.009859111805158808,0.9994222859509541,0.027734024809943646,-0.019626983664861947,0.0008364954452841067
2,310.0,0.33039982910156246,8.298302954101562,-4.364629626464843,-0.0095926493239383,-0.10432006139782901,0.000799387443661525,0.2588764280485342,8.249072185084138,-4.44954011480605,-0.034653559557256144,-0.088897239574387,-0.0046961761881098175,0.2825157958984375,8.233659509277343,-4.455609289550781,-0.0095926493239383,-0.10432006139782901,0.009859111805158808,0.25913842447426205,8.250449503718983,-4.42013702772618,-0.027093487135453276,-0.09956051116779774,0.00940689074228753,0.33039982910156246,8.298302954101562,-4.364629626464843,-0.0095926493239383,-0.10432006139782901,0.000799387443661525,0.9993840118381895,0.028682734550237104,-0.020205104905306977,0.0008070667206775136
2,320.0,0.30406361083984373,8.295908752441406,-4.455609289550781,-0.007327718233563979,-0.10871669233796741,0.05275957128166065,0.2679138646067961,8.258439498555592,-4.450753949754996,-0.029188391292517712,-0.09286113012710308,0.006794973305844278,0.28012159423828126,8.21690009765625,-4.42448466796875,-0.008127105677225504,-0.10871669233796741,0.05275957128166065,0.2659544877819293,8.244315065970143,-4.425433069105364,-0.022222912499657695,-0.1059804814021276,0.014212717506062074,0.30406361083984373,8.295908752441406,-4.455609289550781,-0.007327718233563979,-0.10871669233796741,0.05275957128166065,0.9993435197677557,0.02963750532235676,-0.0208104538236469,0.0010357548524487091
2,330.0,0.27293898925781246,8.21690009765625,-4.398148449707031,-0.008127105677225504,-0.11178101087200325,0.05342572748471192,0.2689188895369994,8.250131618375725,-4.440232849745403,-0.024976134169459274,-0.09664510627608312,0.01612112414161781,0.27293898925781246,8.21690009765625,-4.42448466796875,-0.007327718233563979,-0.11178101087200325,0.05275957128166065,0.27297382660736275,8.239173618715629,-4.43254960047815,-0.01709093677304512,-0.11195537000887447,0.01846096751021426,0.27293898925781246,8.21690009765625,-4.398148449707031,-0.008127105677225504,-0.11178101087200325,0.05342572748471192,0.9993015477586902,0.030588226545750618,-0.02142835070527844,0.0012660291955058159
2,340.0,0.26336218261718747,8.173804467773436,-4.42448466796875,-0.005595712105630675,-0.11337978575932631,0.054358346168983704,0.26780754815303703,8.234866188255268,-4.437083213390072,-0.021100049756693554,-0.09999204217273178,0.023768568547090987,0.2657563842773437,8.21690009765625,-4.42448466796875,-0.005595712105630675,-0.11337978575932631,0.05275957128166065,0.2811922032798908,8.236150478023058,-4.440964857572187,-0.011805329154599774,-0.11723188586831632,0.02207824898424113,0.26336218261718747,8.173804467773436,-4.42448466796875,-0.005595712105630675,-0.11337978575932631,0.054358346168983704,0.9992576628591595,0.03155135259104708,-0.022054157520478644,0.001499834320147248
2,350.0,0.2657563842773437,8.13310303955078,-4.5322237426757805,0.004929555902579404,-0.11817611042129546,0.049961715228845315,0.26739731537789835,8.214513558514371,-4.4561113192472135,-0.015894128624838966,-0.10362885582244452,0.029007197883441853,0.2657563842773437,8.21690009765625,-4.398148449707031,0.004929555902579404,-0.11817611042129546,0.049961715228845315,0.29168482177888366,8.236225015945456,-4.450078424529866,-0.006368766724286596,-0.12155414003610611,0.025311565674718643,0.2657563842773437,8.13310303955078,-4.5322237426757805,0.004929555902579404,-0.11817611042129546,0.049961715228845315,0.9992101561043751,0.03256732689512357,-0.02270475183161331,0.0017109649444332915
2,360.0,0.21308394775390624,8.228871105957031,-4.314351391601562,0.009859111805158808,-0.12683614106096197,0.033041347671343035,0.25653464185309993,8.217385068002903,-4.427759333718083,-0.010743480538839412,-0.10827031287014802,0.029814027841022092,0.2657563842773437,8.173804467773436,-4.42448466796875,0.007327718233563979,-0.12683614106096197,0.0383705972957532,0.30536012435637716,8.239851120394073,-4.459275630535664,-0.0006934637137574426,-0.12464585733868377,0.028706847123238354,0.21308394775390624,8.228871105957031,-4.314351391601562,0.009859111805158808,-0.12683614106096197,0.033041347671343035,0.999159631816884,0.03361010013754368,-0.023388525404688023,0.0018352644734048239
2,370.0,0.32082302246093747,8.267178332519531,-4.390965844726562,0.0075941807147844875,-0.17000306301868431,0.0287779479718149,0.26939231797466745,8.22734372090623,-4.42040063591978,-0.007075948288114633,-0.12061686289985528,0.029606811867180657,0.32082302246093747,8.228871105957031,-4.5322237426757805,0.0074609494741742334,-0.17000306301868431,0.0383705972957532,0.322750265262878,8.246907484934496,-4.46777569968822,0.005400239605537511,-0.12624125411080092,0.03301459675672964,0.32082302246093747,8.267178332519531,-4.390965844726562,0.0075941807147844875,-0.17000306301868431,0.0287779479718149,0.9991024604780867,0.03464153044104236,-0.024300477484831714,0.0019299298807279298
2,380.0,0.4165910888671875,8.169016064453125,-4.57771357421875,0.007327718233563979,-0.17013629425929458,0.0383705972957532,0.2988320721531715,8.215678189615609,-4.451863223579574,-0.004195214983778911,-0.13052074917174314,0.03135956895289517,0.3280056274414062,8.262389929199218,-4.484339709472656,0.0074609494741742334,-0.17013629425929458,0.0383705972957532,0.3440033298746327,8.256928240544642,-4.4743187853959325,0.012166671342382036,-0.12620968730873816,0.03907293940629164,0.4165910888671875,8.169016064453125,-4.57771357421875,0.007327718233563979,-0.17013629425929458,0.0383705972957532,0.9990430109777002,0.03566932111313726,-0.025228390497028574,0.002071246211366134
2,390.0,0.36391865234375,8.267178332519531,-4.570530969238281,0.0074609494741742334,-0.17013629425929458,0.05688973974057853,0.31184938819128716,8.225978218196394,-4.475596772711316,-0.001863982092188282,-0.13844385818925342,0.03646560311043184,0.36391865234375,8.262389929199218,-4.484339709472656,0.007327718233563979,-0.17013629425929458,0.046231240491758196,0.369190933738646,8.26920895713067,-4.477360815534153,0.01988211882323566,-0.12472827919521184,0.04773441956104646,0.36391865234375,8.267178332519531,-4.570530969238281,0.0074609494741742334,-0.17013629425929458,0.05688973974057853,0.9989815429864719,0.03669564784020113,-0.026153427308543885,0.0023031374194186884
2,400.0,0.3280056274414062,8.262389929199218,-4.484339709472656,0.003996937218307625,-0.17040275674051508,0.050494640191286334,0.315080636041311,8.23326056039696,-4.477345360063584,-0.0006917982300891006,-0.14483563789950576,0.03927141052660274,0.36391865234375,8.2360537109375,-4.505887524414062,0.007327718233563979,-0.17013629425929458,0.046231240491758196,0.3985381883689821,8.282739469807334,-4.475703525981617,0.0287699065186124,-0.12239604990694063,0.05985814621725765,0.3280056274414062,8.262389929199218,-4.484339709472656,0.003996937218307625,-0.17040275674051508,0.050494640191286334,0.9989189112322244,0.037705522963223194,-0.02707487306708341,0.0025007137177174305
2,410.0,0.38307226562499996,8.2360537109375,-4.4819455078125,0.005462480865020421,-0.13816079651283358,0.046231240491758196,0.3286789619580488,8.233819190505068,-4.478265389613368,0.0005390575889328037,-0.14350066962217134,0.04066337651963383,0.36391865234375,8.262389929199218,-4.505887524414062,0.0074609494741742334,-0.14349004613724375,0.047030627935419726,0.4322233287946148,8.296204339112439,-4.468742410621646,0.03891225311572749,-0.12025368614735464,0.07629087684222816,0.38307226562499996,8.2360537109375,-4.4819455078125,0.005462480865020421,-0.13816079651283358,0.046231240491758196,0.9988584668492486,0.03872215276538773,-0.027841800337340388,0.002681835706791776
2,420.0,0.33518823242187495,8.180987072753906,-4.505887524414062,0.013856049023466434,-0.14349004613724375,0.04423277188260438,0.32998081605081403,8.223252766954836,-4.483789816573506,0.00320245587583953,-0.14349854492518582,0.04137725559222794,0.38307226562499996,8.262389929199218,-4.505887524414062,0.013856049023466434,-0.13816079651283358,0.046231240491758196,0.4699821402473338,8.307919571897642,-4.456269618465658,0.05015648832132312,-0.11972510669512562,0.09775727103898922,0.33518823242187495,8.180987072753906,-4.505887524414062,0.013856049023466434,-0.14349004613724375,0.04423277188260438,0.9987940853616722,0.03978112164093247,-0.02863051093905193,0.0028515348321335844
2,430.0,0.5506663818359374,8.29351455078125,-4.570530969238281,0.020784073535199652,-0.1340306280539157,0.047030627935419726,0.37411792920783876,8.23730512372012,-4.501138047106462,0.006718779407711555,-0.1416049615509318,0.0425079300608663,0.5506663818359374,8.279149340820313,-4.570530969238281,0.020784073535199652,-0.1340306280539157,0.046231240491758196,0.5108697138128794,8.315588161959564,-4.438415554204293,0.06203613718783408,-0.12251832252165622,0.1246670979260153,0.5506663818359374,8.29351455078125,-4.570530969238281,0.020784073535199652,-0.1340306280539157,0.047030627935419726,0.9987272229932442,0.040871912130269784,-0.02939716695417697,0.00303766786965385
2,440.0,0.5961562133789062,8.279149340820313,-4.7381250854492185,0.03956967846124549,-0.11577794809031088,0.041967840792230066,0.41852558604205226,8.245673967140158,-4.548535454775013,0.013288959218418342,-0.13643955885880762,0.042399912207139054,0.5961562133789062,8.29351455078125,-4.570530969238281,0.03956967846124549,-0.11577794809031088,0.047030627935419726,0.5533911744734951,8.31619075314761,-4.416071854972513,0.07372254647847873,-0.1305260571817978,0.15687874003959001,0.5961562133789062,8.279149340820313,-4.7381250854492185,0.03956967846124549,-0.11577794809031088,0.041967840792230066,0.9986572596791693,0.04205605370899994,-0.030078242079326196,0.003203964721356267
2,450.0,0.689530078125,8.374917407226562,-4.747701892089843,0.06794793271122963,-0.07900612568188073,0.04743032165725049,0.47272648445864185,8.27152265515744,-4.5883687422379795,0.0242207539169806,-0.12495287222342226,0.043405994097161345,0.689530078125,8.374917407226562,-4.570530969238281,0.06794793271122963,-0.07900612568188073,0.04743032165725049,0.5959981862019726,8.306217277513083,-4.391796820192307,0.08402279893147485,-0.14567651220235456,0.193422679657963,0.689530078125,8.374917407226562,-4.747701892089843,0.06794793271122963,-0.07900612568188073,0.04743032165725049,0.9985845517094245,0.04337914607936928,-0.030586313778141663,0.003408838831303674
2,460.0,0.7493851196289062,8.511386901855468,-4.513070129394531,0.08886523748703953,-0.03823736605514295,0.08087136305042428,0.5280582114926947,8.319495504497047,-4.57330901966929,0.03714965063099239,-0.1076097709897664,0.05089906788781394,0.689530078125,8.489839086914062,-4.513070129394531,0.08886523748703953,-0.03823736605514295,0.08087136305042428,0.6376249961676157,8.282199522671437,-4.3707139669929,0.09144625669744356,-0.1696356302616003,0.23220370348379432,0.7493851196289062,8.511386901855468,-4.513070129394531,0.08886523748703953,-0.03823736605514295,0.08087136305042428,0.9985107227166418,0.044800094262416774,-0.030901583583060423,0.003792137395662029
2,470.0,0.8499415893554687,8.664615808105468,-4.3430818115234375,0.12070750399289028,-0.0009326186842717792,0.16573966331915618,0.5924348870652496,8.388519565218733,-4.52726357804012,0.05386122130337197,-0.08627434052866748,0.0738671869740824,0.689530078125,8.489839086914062,-4.3430818115234375,0.12070750399289028,-0.03823736605514295,0.16573966331915618,0.6780811603390825,8.24166459869937,-4.360531763493607,0.09433975607838843,-0.20332962966843923,0.2697908603471568,0.8499415893554687,8.664615808105468,-4.3430818115234375,0.12070750399289028,-0.0009326186842717792,0.16573966331915618,0.9984310110051511,0.04636486346459392,-0.031057065608522744,0.0046124153032357906
2,480.0,0.6200982299804687,8.489839086914062,-3.900154504394531,0.1433568148966335,0.004929555902579404,0.30296784114771796,0.5979675556482934,8.408783469557799,-4.401841763311003,0.07176034002202428,-0.06803356124241809,0.1196873178088095,0.6200982299804687,8.489839086914062,-3.900154504394531,0.1433568148966335,-0.03823736605514295,0.30296784114771796,0.7182314022966838,8.184411421453541,-4.370254956415876,0.09107770356349054,-0.24634391502670738,0.30148103349067007,0.6200982299804687,8.489839086914062,-3.900154504394531,0.1433568148966335,0.004929555902579404,0.30296784114771796,0.9983403843282058,0.04802355856764168,-0.031188860943284064,0.0061212576298378925
2,490.0,0.5458779785156249,8.044517578125,-3.5529952636718747,0.15974425749169474,-0.0703460950422142,0.47203828548213056,0.5875496402217597,8.33593029127124,-4.232072463383178,0.08935712351595837,-0.06849606800237731,0.19015751134347375,0.6200982299804687,8.044517578125,-3.900154504394531,0.15974425749169474,-0.0703460950422142,0.47203828548213056,0.7595480443000245,8.11318158968492,-4.4076835440433335,0.08029903930977288,-0.29635227143468207,0.32180372165309634,0.5458779785156249,8.044517578125,-3.5529952636718747,0.15974425749169474,-0.0703460950422142,0.47203828548213056,0.9982222101245968,0.04973990803825021,-0.031730475348292785,0.00845799600870486
2,500.0,0.40222587890625,7.6279264892578125,-3.7038299682617186,0.1898545178696122,-0.3081638595315179,0.6129969380477794,0.5504848879586578,8.194329530868554,-4.126423964358886,0.10945660238668914,-0.11642962630820544,0.27472539668433493,0.6200982299804687,8.044517578125,-3.900154504394531,0.15974425749169474,-0.3081638595315179,0.5822205214668107,0.8028458662664328,8.032651247798926,-4.476250750516714,0.061185788739793266,-0.348893067033978,0.32549597747731834,0.40222587890625,7.6279264892578125,-3.7038299682617186,0.1898545178696122,-0.3081638595315179,0.6129969380477794,0.9980411553067647,0.05159428308135199,-0.033480753294307934,0.011442090110885489
2,510.0,0.7206546997070312,8.032546569824218,-4.220977526855468,0.19904747347171972,-0.6129969380477794,0.6014058201146874,0.5845188503083325,8.161972938659687,-4.1453346768582024,0.12737477660369526,-0.21574308865612024,0.3400614813704054,0.7206546997070312,8.044517578125,-4.220977526855468,0.15974425749169474,-0.6129969380477794,0.5822205214668107,0.84690614889136,7.947307135702468,-4.572802725068484,0.03379599893098297,-0.39792429140846247,0.3087082394750239,0.7206546997070312,8.032546569824218,-4.220977526855468,0.19904747347171972,-0.6129969380477794,0.6014058201146874,0.9977872376318593,0.0535091003458372,-0.03678604837194793,0.01428955017975054
2,520.0,1.1659762084960936,8.726865051269531,-4.76924970703125,0.12523736617363893,-0.7341041357625004,0.5822205214668107,0.7008103219458848,8.274951361181657,-4.2701176828928125,0.126947294517684,-0.3194152980773963,0.3884932893896865,1.1659762084960936,8.032546569824218,-4.76924970703125,0.12523736617363893,-0.6129969380477794,0.5822205214668107,0.8882549161422778,7.860886736236871,-4.6879874884432855,-0.0005984388704633591,-0.43725131270257034,0.2699888217614337,1.1659762084960936,8.726865051269531,-4.76924970703125,0.12523736617363893,-0.7341041357625004,0.5822205214668107,0.997506893711607,0.0550603718611577,-0.04073887626233302,0.016991068513020603
2,530.0,1.3120225097656248,8.269572534179687,-5.2265422241210935,-0.012390505376753638,-0.6797457895935168,0.493754977701602,0.8230527595098329,8.273875595781263,-4.461402591138469,0.09907973453879648,-0.39148139638062046,0.40954562705206965,1.1659762084960936,8.032546569824218,-5.073313317871094,-0.012390505376753638,-0.6129969380477794,0.493754977701602,0.9227426543481573,7.778876000919009,-4.80910974946878,-0.03939407339690242,-0.46213097838902634,0.21077342490685136,1.3120225097656248,8.269572534179687,-5.2265422241210935,-0.012390505376753638,-0.6797457895935168,0.493754977701602,0.9972597620937534,0.05593193779374453,-0.04443768612482239,0.019232194238277104
2,540.0,1.1875240234375,7.3932947265625,-5.3199160888671875,-0.13323124061025418,-0.582353752707421,0.24554517644469845,0.8959470122953664,8.09775942193751,-4.633105290684213,0.05261753950898636,-0.42965586764598057,0.3767455369305954,1.1659762084960936,7.3932947265625,-5.073313317871094,-0.13323124061025418,-0.582353752707421,0.24554517644469845,0.9478292663095738,7.711025671465207,-4.923709437784371,-0.07898156402071074,-0.4700751398901459,0.13537597641740204,1.1875240234375,7.3932947265625,-5.3199160888671875,-0.13323124061025418,-0.582353752707421,0.24554517644469845,0.9970764080278292,0.056243676505968926,-0.04760313034210036,0.020229369467359162
2,550.0,0.9361328491210937,6.641515405273437,-5.073313317871094,-0.23195558990245252,-0.4515206744281514,0.025180704475338038,0.9039841796605119,7.806510618604697,-4.721146896121589,-0.004297086373301416,-0.43402882900241474,0.30643257043954397,0.9361328491210937,6.648698010253906,-5.073313317871094,-0.23195558990245252,-0.4515206744281514,0.025180704475338038,0.9636501234476161,7.6697258515426645,-5.021915404565392,-0.115438750261851,-0.46057679547244285,0.050410429967325164,0.9361328491210937,6.641515405273437,-5.073313317871094,-0.23195558990245252,-0.4515206744281514,0.025180704475338038,0.996966211889668,0.05610379211401192,-0.050053438725801896,0.020134302384629862
2,560.0,0.8116343627929687,6.325480786132812,-4.932055419921875,-0.26992649347637493,-0.32748238942000474,-0.11204747335322376,0.8855142162870033,7.51030465211032,-4.763328600881647,-0.057422967793916126,-0.4127195410859328,0.22273656168099043,0.8116343627929687,6.648698010253906,-5.073313317871094,-0.26992649347637493,-0.41728024559131605,-0.11204747335322376,0.9722299392419141,7.6645162817815,-5.096480257311105,-0.14527287883577306,-0.4341975037006181,-0.036295675647566784,0.8116343627929687,8.044517578125,-4.932055419921875,-0.26992649347637493,-0.32748238942000474,-0.11204747335322376,0.996906961774938,0.05579731715490989,-0.051843727878120464,0.019375160455492882
2,570.0,0.507570751953125,6.648698010253906,-4.800374328613281,-0.33880704487187635,-0.3109617155843332,-0.32215313979559457,0.8099255234202276,7.337983323739037,-4.770737746427974,-0.11369978320950817,-0.3923679759856129,0.11375862138567344,0.5219359619140624,6.648698010253906,-5.073313317871094,-0.2916431856958464,-0.41728024559131605,-0.32215313979559457,0.9756390535298458,7.696533514267553,-5.140982443918738,-0.16597322972621273,-0.3915648537550284,-0.11687453079296882,0.507570751953125,6.648698010253906,-4.800374328613281,-0.33880704487187635,-0.3109617155843332,-0.32215313979559457,0.996888738071701,0.05520721953030408,-0.05345129415632465,0.017548959244303396
2,580.0,0.29448680419921874,7.4603323730468745,-5.561730456542969,-0.3774441046488501,-0.41728024559131605,-0.5792894341733852,0.7068377795760259,7.362453133600605,-4.9289362884509735,-0.16644864749737656,-0.39735042990675357,-0.02485098972613828,0.5219359619140624,7.4603323730468745,-5.561730456542969,-0.2916431856958464,-0.41728024559131605,-0.5792894341733852,0.9738173162280248,7.756246369749512,-5.148161183883291,-0.1763887429366254,-0.33280163783967226,-0.18450367577919102,0.29448680419921874,7.4603323730468745,-5.561730456542969,-0.3774441046488501,-0.41728024559131605,-0.5792894341733852,0.9968664015641269,0.05450534054490803,-0.0554913178976724,0.014396489942075798
2,590.0,0.5219359619140624,9.157821350097656,-7.323862878417969,-0.2916431856958464,-0.5223996944328066,-0.7711424206521511,0.6698574160436332,7.721526776900015,-5.407921606444373,-0.19148755513707053,-0.4223602828119642,-0.17410927591134084,0.5219359619140624,8.104372619628906,-5.561730456542969,-0.2916431856958464,-0.41728024559131605,-0.5792894341733852,0.9625284753187434,7.826242805628967,-5.111521332662083,-0.17698626807947362,-0.25783113060123475,-0.23467361503664308,0.5219359619140624,9.157821350097656,-4.771643908691406,-0.2916431856958464,-0.5223996944328066,-0.7711424206521511,0.9967852981488418,0.05428824244733796,-0.05801870841111784,0.010280350218228968
2,600.0,0.7805097412109374,9.65342109375,-6.782773303222656,-0.1340306280539157,-0.5290612564633194,-0.5947442580841746,0.6919878810770941,8.107905640270014,-5.68289194580003,-0.17999616972043955,-0.44370047754223524,-0.2582362723459076,0.7805097412109374,8.104372619628906,-5.561730456542969,-0.1340306280539157,-0.41728024559131605,-0.5792894341733852,0.9324873685383331,7.888975418238421,-5.031839089817833,-0.16977139693639,-0.16751900484693227,-0.2664867908563135,0.7805097412109374,9.65342109375,-6.782773303222656,-0.1340306280539157,-0.5290612564633194,-0.5947442580841746,0.9966293931761553,0.05480218534814067,-0.06063331439248492,0.00708338366730352
2,610.0,2.29843359375,8.104372619628906,-4.309562988281249,-0.015588055151399738,-0.3794425732580039,-0.04090199086734803,1.0132770236116753,8.107199036141793,-5.408226154296274,-0.14711454680663158,-0.430848896685389,-0.21476941605019573,1.4413093994140624,8.104372619628906,-4.309562988281249,-0.01758652376055355,-0.3794425732580039,-0.050494640191286334,0.8712562985624188,7.935068162132508,-4.92309183062443,-0.15761814221137269,-0.06499973030760425,-0.28286813383862935,2.29843359375,8.104372619628906,-4.309562988281249,-0.015588055151399738,-0.3794425732580039,-0.04090199086734803,0.9964475645337901,0.0556935570416419,-0.06281078298552151,0.006729366944475078
2,620.0,2.0542250244140625,7.584830859375,-3.2632968627929686,0.05942113331217336,-0.175598775124315,0.08913169996826004,1.2214666237721528,8.002725400788435,-4.979240295995614,-0.10580741078287059,-0.3797988723731742,-0.15398919284650459,1.4413093994140624,7.9272016967773435,-3.859453076171875,-0.01758652376055355,-0.175598775124315,-0.050494640191286334,0.7686886070441357,7.965159472094715,-4.809179898690542,-0.14319568386693246,0.04357858709276381,-0.28873394386873524,2.0542250244140625,7.584830859375,-3.2632968627929686,0.05942113331217336,-0.175598775124315,0.08913169996826004,0.9963009614257539,0.05691539934574421,-0.06398938292447753,0.007098623273384697
2,630.0,1.4413093994140624,7.685387329101562,-2.806004345703125,-0.01758652376055355,0.09672588068304452,-0.050494640191286334,1.2654351789005347,7.93925778645106,-4.544593105937116,-0.08816323337840719,-0.2844939217619305,-0.13329028231546095,1.4413093994140624,7.9272016967773435,-3.859453076171875,-0.01758652376055355,0.09672588068304452,-0.050494640191286334,0.6231172394640876,7.984660687458702,-4.712395793055932,-0.12803959645937257,0.1492193039613575,-0.28815008964043937,1.4413093994140624,7.685387329101562,-2.806004345703125,-0.01758652376055355,0.09672588068304452,-0.050494640191286334,0.9962701837613576,0.05780842380889383,-0.06369789465073772,0.006818013046754715
2,640.0,1.2832920898437499,7.9272016967773435,-3.859453076171875,-0.15721286392009992,0.5932787144374618,-0.18545788692947382,1.2690065610891779,7.936846568516318,-4.407565099984067,-0.10197315948674573,-0.10893939452205204,-0.14372380323826353,1.2832920898437499,7.9272016967773435,-3.859453076171875,-0.15721286392009992,0.5932787144374618,-0.18545788692947382,0.4438135647163726,7.998285589961505,-4.643460615680366,-0.11229066587836502,0.24116865042720362,-0.2826938171081439,1.2832920898437499,7.9272016967773435,-3.859453076171875,-0.15721286392009992,0.5932787144374618,-0.18545788692947382,0.9964382618638465,0.0580344344333034,-0.06088695763955764,0.005964319170009868
2,650.0,0.23223756103515625,8.05648858642578,-4.996698864746094,-0.20717457914894524,0.9500719767917225,-0.3822404293108192,1.0616527610783737,7.960774972098211,-4.5253918529364725,-0.12301344341918566,0.10286287974070289,-0.19142712845277465,0.23223756103515625,8.05648858642578,-4.771643908691406,-0.15894487004803323,0.8601408893798009,-0.34173813216530197,0.2493745428376393,8.008618375085955,-4.599896362502845,-0.09525674548452279,0.30901480250467195,-0.271766397565314,0.23223756103515625,8.05648858642578,-4.996698864746094,-0.20717457914894524,-0.009459418083328047,-0.3822404293108192,0.9967238210986837,0.058077113235436906,-0.05613280267205095,0.004216851533745498
2,660.0,-0.7996633544921875,8.233659509277343,-5.2073886108398435,-0.16067687617596654,1.0858346109735715,-0.4496554370596078,0.6893895379642615,8.015351879534037,-4.661791204517147,-0.13054612997054185,0.29945722598727664,-0.2430727901741413,-0.7996633544921875,8.05648858642578,-4.771643908691406,-0.15894487004803323,0.8601408893798009,-0.34173813216530197,0.06384873654455049,8.01723887820506,-4.5718920598718835,-0.07634455478980885,0.3454848843607616,-0.25396718775228166,-0.7996633544921875,8.233659509277343,-5.2073886108398435,-0.16067687617596654,-0.009459418083328047,-0.4496554370596078,0.9970114194628011,0.0583706611757029,-0.05055993544332247,0.0021882190586398633
2,670.0,-1.4508862060546874,8.197746484375,-4.771643908691406,-0.15894487004803323,0.8601408893798009,-0.34173813216530197,0.26133438916047175,8.05183080050223,-4.683761745351999,-0.13622587798604013,0.4115939586657815,-0.26280585857237343,-1.4053963745117186,8.05648858642578,-4.771643908691406,-0.15894487004803323,0.8601408893798009,-0.34173813216530197,-0.08918251810219045,8.026193142227608,-4.549701124482019,-0.055704200236919174,0.3487651418017556,-0.22848220145188666,-1.4508862060546874,8.197746484375,-4.771643908691406,-0.15894487004803323,0.8601408893798009,-0.34173813216530197,0.9972158900788327,0.058641133514250626,-0.0460573356578195,0.0006386443050669693
2,680.0,-1.5969325073242187,7.577648254394531,-4.350264416503906,-0.14109188380625917,0.47430321657250485,-0.22289586554095522,-0.11031899013646634,7.956994291280691,-4.617062279582381,-0.13719907915008395,0.4241358102471262,-0.2548238599660898,-1.4053963745117186,7.577648254394531,-4.771643908691406,-0.14109188380625917,0.47430321657250485,-0.22289586554095522,-0.19322409637208288,8.038561899714507,-4.526929376094224,-0.034441175179606834,0.3230547945194364,-0.19575537191262338,-1.5969325073242187,7.577648254394531,-4.350264416503906,-0.14109188380625917,0.47430321657250485,-0.22289586554095522,0.9973125035519803,0.05896931906604447,-0.04347657973516804,-0.0004203359367597259
2,690.0,-1.4053963745117186,7.168239770507812,-4.541800549316406,-0.022649310903743208,-0.009459418083328047,-0.09859111805158809,-0.36933446701151684,7.799243387126116,-4.602009933529186,-0.11428912550081581,0.3374167645810354,-0.22357731158318947,-1.4053963745117186,7.577648254394531,-4.771643908691406,-0.022649310903743208,-0.009459418083328047,-0.09859111805158809,-0.24337128363926722,8.056929077842677,-4.499451934611796,-0.014607005773343281,0.2769513468740886,-0.15725175676129957,-1.4053963745117186,7.168239770507812,-4.541800549316406,-0.022649310903743208,-0.009459418083328047,-0.09859111805158809,0.9972639611717456,0.05986214568847333,-0.04336096783265384,-0.0009704278575150941
2,700.0,-0.3232172241210937,7.572859851074218,-4.771643908691406,0.15228330801752052,-0.38343951047631153,0.0401026034236865,-0.36011101843343224,7.753966679915736,-4.635936728561631,-0.06097463879714855,0.19324550956956604,-0.17084132858181428,-0.3232172241210937,7.577648254394531,-4.548983154296875,0.14455589606212577,-0.009459418083328047,0.005995405827461438,-0.24696339590025926,8.080150133011959,-4.463735816774998,0.0011060454205408107,0.22027563139833342,-0.1147020413278958,-0.3232172241210937,7.572859851074218,-4.771643908691406,0.15228330801752052,-0.38343951047631153,0.0401026034236865,0.9970721705756592,0.0616025535373158,-0.04529250801697659,-0.0008948624239996522
2,710.0,0.8116343627929687,8.40843623046875,-4.886565588378906,0.18345941832032,-0.24381317031676514,0.022782542144353463,-0.12576194218815204,7.8848605900263395,-4.686062500525086,-0.012087827373654846,0.10583377359229983,-0.1321165544365807,0.28490999755859375,8.40843623046875,-4.548983154296875,0.14455589606212577,-0.009459418083328047,0.005995405827461438,-0.21966046369490666,8.101589000133714,-4.4171733452173445,0.01013153560630965,0.16069539119990228,-0.06930739301993563,0.8116343627929687,8.40843623046875,-4.886565588378906,0.18345941832032,-0.24381317031676514,0.022782542144353463,0.9968911530172637,0.06349195874272649,-0.04664842713715091,-0.0008511501349165616
2,720.0,0.6464344482421874,8.659827404785156,-4.548983154296875,0.14455589606212577,0.022249617181912446,0.005995405827461438,0.02867733589791585,8.039853952978103,-4.658646631279444,0.019240917313501277,0.08911694231022237,-0.10449416238377228,0.28490999755859375,8.40843623046875,-4.548983154296875,0.14455589606212577,0.022249617181912446,0.005995405827461438,-0.17810396532483394,8.111284778269335,-4.359615546360776,0.010906866256289347,0.10190480346749024,-0.021304914979979935,0.6464344482421874,8.659827404785156,-4.548983154296875,0.14455589606212577,0.022249617181912446,0.005995405827461438,0.996781203477803,0.06519475310915382,-0.046649812673288944,-0.0008194741769462114
2,730.0,0.28490999755859375,8.576030346679687,-4.359841223144531,0.09246248098351639,0.1883889742228994,-0.024381317031676515,0.07992386823005143,8.14708923171842,-4.598885549652461,0.0338852300475043,0.10897134869275779,-0.08847159331335314,0.28490999755859375,8.501810095214843,-4.359841223144531,0.09246248098351639,0.03970290970185574,0.005462480865020421,-0.13362580576451413,8.100279121002835,-4.294005545983377,0.003291883902938764,0.04426104255612626,0.02987715343652326,0.28490999755859375,8.576030346679687,-4.359841223144531,0.09246248098351639,0.1883889742228994,-0.024381317031676515,0.9967255716438057,0.06664917821153347,-0.04577349286639078,-0.0008995698230331285
2,740.0,-0.028730419921875,8.219294299316406,-4.266467358398438,0.04836294034152226,0.14628790219005908,0.0027978560528153376,0.05819301059966615,8.161530245238017,-4.5324019114016565,0.036780772106307896,0.11643465939221805,-0.07021770344011945,-0.028730419921875,8.501810095214843,-4.273649963378906,0.04836294034152226,0.03970290970185574,0.005462480865020421,-0.09080412708461405,8.06343360385826,-4.225568223863838,-0.011555352249726621,-0.013114493526095818,0.08505453291341049,-0.028730419921875,8.219294299316406,-4.266467358398438,0.04836294034152226,0.14628790219005908,0.0027978560528153376,0.9966741136337957,0.0678792610537822,-0.045081729966136345,-0.0008687659870902174
2,750.0,-0.32082302246093747,8.501810095214843,-4.273649963378906,-0.0223828484225227,0.03970290970185574,0.005462480865020421,-0.017610196012454574,8.229586215233383,-4.480651521797107,0.02494804800054178,0.10108830945414558,-0.05508166657909148,-0.22026655273437498,8.219294299316406,-4.266467358398438,-0.0223828484225227,0.03970290970185574,0.005462480865020421,-0.049926540981031345,7.999688280027042,-4.160723101876234,-0.031538024993378065,-0.07054065970223912,0.14467009429616096,-0.32082302246093747,8.501810095214843,-4.273649963378906,-0.0223828484225227,0.03970290970185574,0.005462480865020421,0.9966227280765061,0.06875646170742052,-0.044887821605991876,-0.0008776823385659402
2,760.0,-0.22026655273437498,8.161833459472655,-3.8690298828125,-0.1003231241795214,-0.12803522222645425,0.0764747321102859,-0.05814146735683866,8.216035664081238,-4.358327194000186,-0.00010618643547085499,0.05526360311802561,-0.02877038684121601,-0.22026655273437498,8.161833459472655,-3.8690298828125,-0.09366156214900868,-0.12803522222645425,0.0764747321102859,-0.010287918619249168,7.91153585091221,-4.106463851602152,-0.0540306078822352,-0.12714484376606697,0.2083033664322508,-0.22026655273437498,8.161833459472655,-3.8690298828125,-0.1003231241795214,-0.12803522222645425,0.0764747321102859,0.9965597107055335,0.06922826608960372,-0.045561186452694316,-0.0006070105048463553
2,770.0,-0.2825157958984375,7.740453967285156,-3.706224169921875,-0.09366156214900868,-0.264197550130134,0.3023016849446667,-0.10301633306515844,8.120919324722022,-4.227906589184524,-0.01881726157817842,-0.008628627531606314,0.03744402751596053,-0.22026655273437498,7.9463553100585935,-3.8690298828125,-0.09526033703633173,-0.264197550130134,0.3023016849446667,0.02749003297849054,7.804646249046318,-4.069528623796314,-0.07629352421570529,-0.1812007146798188,0.27445276209371294,-0.2825157958984375,7.740453967285156,-3.706224169921875,-0.09366156214900868,-0.264197550130134,0.3023016849446667,0.9964620243812805,0.06968124907435937,-0.04698306130129318,0.0007412450044228612
2,780.0,0.1484405029296875,7.568071447753906,-3.7134067749023436,-0.09526033703633173,-0.3815742731077679,0.4119509959669059,-0.05272496586618926,8.010349749328398,-4.125006626328089,-0.03410587666980908,-0.08321775664683864,0.11234542120614961,0.1484405029296875,7.740453967285156,-3.8690298828125,-0.1003231241795214,-0.34240428836835324,0.3964961720561164,0.06062488570270797,7.686760192608435,-4.054939657063974,-0.0957446478501375,-0.23091121939985648,0.3408316285636452,0.1484405029296875,7.568071447753906,-3.7134067749023436,-0.09526033703633173,-0.3815742731077679,0.4119509959669059,0.9963284910654231,0.07009829185570143,-0.0490818864071662,0.002595341388713349
2,790.0,0.4955997436523437,7.9463553100585935,-3.967192150878906,-0.1500183769271462,-0.3947641659281831,0.3964961720561164,0.05693997603751735,7.997550861474437,-4.093443731238253,-0.05728837672127651,-0.14552703850310755,0.16917557137614297,0.4955997436523437,7.697358337402343,-3.967192150878906,-0.1500183769271462,-0.34240428836835324,0.4119509959669059,0.08494415765798599,7.566262474689679,-4.064899677049064,-0.11000215660950508,-0.27518004026227905,0.4050126874121838,0.4955997436523437,7.9463553100585935,-3.967192150878906,-0.1500183769271462,-0.3947641659281831,0.3964961720561164,0.9962013499914566,0.0702422230202402,-0.051283047292604925,0.004353095537479658
2,800.0,0.6847416748046875,7.697358337402343,-4.029441394042968,-0.21450229738250923,-0.34240428836835324,0.432468607020885,0.18250031579095138,7.937512356660019,-4.080643263799196,-0.08873116085352306,-0.1849024884761567,0.2218341785050914,0.5602431884765625,7.678204724121093,-4.029441394042968,-0.19904747347171972,-0.34240428836835324,0.432468607020885,0.09709794683236901,7.452196709147249,-4.098968266433908,-0.11691738525734632,-0.31400808061582824,0.46478255754451614,0.6847416748046875,7.697358337402343,-4.029441394042968,-0.21450229738250923,-0.34240428836835324,0.432468607020885,0.9961004965026405,0.07005062575139148,-0.05326494654624963,0.006289369480081025
2,810.0,0.8212111694335937,7.60398447265625,-4.2329485351562495,-0.2208973969318014,-0.2896447170866926,0.46444410476734604,0.3102424865194799,7.870806779859265,-4.111104318070607,-0.11516440806917874,-0.2058509341982639,0.27035616375754234,0.5602431884765625,7.678204724121093,-4.029441394042968,-0.21237059753274515,-0.2896447170866926,0.46444410476734604,0.09724761238821657,7.355475979063948,-4.155121741096776,-0.11481486251861255,-0.34831379076990554,0.5179772182690671,0.8212111694335937,7.60398447265625,-4.2329485351562495,-0.2208973969318014,-0.2896447170866926,0.46444410476734604,0.9960063909669322,0.06981336539217167,-0.05501653953706795,0.00839902036025538
2,820.0,0.5602431884765625,7.678204724121093,-4.254496350097656,-0.19904747347171972,-0.23222205238367302,0.5379877495842064,0.3602426269108964,7.832286368711631,-4.139782724476017,-0.13194102114968695,-0.21112515783534574,0.3238824809228752,0.5602431884765625,7.60398447265625,-4.1946413085937495,-0.21237059753274515,-0.2896447170866926,0.5379877495842064,0.09097987587891446,7.289691117529364,-4.230823833102641,-0.10281557789527698,-0.3792784398346606,0.5621839796787873,0.5602431884765625,7.678204724121093,-4.254496350097656,-0.19904747347171972,-0.23222205238367302,0.5379877495842064,0.9959108332298638,0.06966573579269478,-0.05647656689138453,0.010894719088803649
2,830.0,0.13407529296874998,7.208941198730468,-3.8474820678710935,-0.21237059753274515,-0.255803981971688,0.6774808585031424,0.31500916012246716,7.707617334715399,-4.081322593155033,-0.1480269364262986,-0.2200609226626142,0.39460215643892865,0.13407529296874998,7.208941198730468,-4.2329485351562495,-0.19904747347171972,-0.2896447170866926,0.6774808585031424,0.08956178439023925,7.2711663491352825,-4.3233557569087155,-0.08103675598003415,-0.4075428573938641,0.594692518628819,0.13407529296874998,7.208941198730468,-3.8474820678710935,-0.21237059753274515,-0.255803981971688,0.6774808585031424,0.9957977863861294,0.06941753455765633,-0.05805279123999845,0.014065843510657212
2,840.0,-0.38786066894531246,6.7037646484375,-4.1946413085937495,-0.19052067407266346,-0.38184073558898846,0.7488928034702387,0.17443519430891122,7.50684679745982,-4.103986336242777,-0.1565256839555716,-0.2524168852478891,0.4654602858451907,-0.38786066894531246,6.842628344726562,-4.254496350097656,-0.19052067407266346,-0.38184073558898846,0.7190490055735418,0.10802431715508533,7.317929516736231,-4.428894996415907,-0.050705974212666996,-0.43264889421401354,0.6128400750769395,-0.38786066894531246,6.7037646484375,-4.1946413085937495,-0.19052067407266346,-0.38184073558898846,0.7488928034702387,0.9956242611334879,0.06926751682409858,-0.060219942005161405,0.017547089226260523
2,850.0,-0.7110778930664062,6.842628344726562,-4.6998178588867185,-0.13949310891893613,-0.5084104141687299,0.7285084236568699,-0.0026674231661522607,7.374003106913169,-4.223152640771565,-0.1531191689482445,-0.30361559103205726,0.5180699134075266,-0.5746083984375,6.7037646484375,-4.6998178588867185,-0.13949310891893613,-0.5084104141687299,0.7190490055735418,0.16140605142141057,7.446981589152608,-4.541440838279496,-0.01428640532454563,-0.45306532795793103,0.6145960318810272,-0.7110778930664062,6.842628344726562,-4.6998178588867185,-0.13949310891893613,-0.5084104141687299,0.7285084236568699,0.9953810918655857,0.06938709046260479,-0.06297201775411855,0.020891113268178392
2,860.0,-0.7685387329101562,6.2584431396484375,-4.843469958496094,-0.050228177710065824,-0.5132067388306991,0.7190490055735418,-0.15584168511495305,7.150891113460223,-4.347216104316471,-0.13254097070060877,-0.34553382059178567,0.5582657318407297,-0.5746083984375,6.2584431396484375,-4.6998178588867185,-0.050228177710065824,-0.5132067388306991,0.7190490055735418,0.2604368839133085,7.670682511749365,-4.653443379684049,0.024477553341745124,-0.4667631455622439,0.5989989168123709,-0.7685387329101562,6.2584431396484375,-4.843469958496094,-0.050228177710065824,-0.5132067388306991,0.7190490055735418,0.9950879358489657,0.06995292190032013,-0.06573099024656698,0.024207964942518513
2,870.0,-0.5746083984375,5.817910034179687,-4.838681555175781,0.05182695259738887,-0.5691638598870058,0.6487029105313276,-0.23959502777946245,6.884294897604116,-4.445509194488333,-0.09566738604100924,-0.3902598284508297,0.5763531675788492,-0.5746083984375,6.2584431396484375,-4.6998178588867185,0.05182695259738887,-0.5691638598870058,0.6487029105313276,0.40812372287162085,7.992601911609963,-4.757590948086376,0.060740519905182054,-0.47187704987830315,0.5662659854917548,-0.5746083984375,5.817910034179687,-4.838681555175781,0.05182695259738887,-0.5691638598870058,0.6487029105313276,0.9947280180099156,0.07105558907189023,-0.06876245543011877,0.027184520796447342
2,880.0,0.03591302490234375,5.449202978515625,-4.434061474609375,0.16707197572525873,-0.6074012259421487,0.6256539059057536,-0.18449341724310123,6.597276513786418,-4.443219650512542,-0.043119513687755656,-0.4336881079490935,0.5862133152442301,0.03591302490234375,6.2584431396484375,-4.838681555175781,0.16707197572525873,-0.5799555903764364,0.6487029105313276,0.5982525427900035,8.401737403660325,-4.84748456208866,0.088998588868368,-0.4671575813546109,0.5177155532952609,0.03591302490234375,5.449202978515625,-4.434061474609375,0.16707197572525873,-0.6074012259421487,0.6256539059057536,0.9942901652633059,0.07273874271489404,-0.07205414768746035,0.030072285745483342
2,890.0,1.0438719238281249,6.545747338867187,-4.2137949218749995,0.33161255787892263,-0.6088667695888615,0.6439065858693584,0.061179650971144,6.586970678802572,-4.397334704785034,0.03182690062558,-0.46872384027704717,0.5977519693692559,1.0414777221679687,6.545747338867187,-4.838681555175781,0.33161255787892263,-0.6036707512050616,0.6439065858693584,0.816487242324683,8.866048279533816,-4.916126788306798,0.10378725313912837,-0.45232586779252126,0.45574117200717307,1.0438719238281249,6.545747338867187,-4.2137949218749995,0.33161255787892263,-0.6088667695888615,0.6439065858693584,0.9937574096534174,0.07521313036635503,-0.07545074099132927,0.033111651473202934
2,900.0,1.678335363769531,10.149020837402343,-5.856217260742187,0.5001500772508941,-0.5799555903764364,0.8091133242260736,0.38461079353082145,7.299380710522527,-4.689111215976465,0.12549153595064283,-0.490970190296925,0.6400242403406196,1.0438719238281249,10.149020837402343,-5.7508723876953125,0.39902756562771124,-0.6036707512050616,0.6256539059057536,1.044218668796597,9.330657532802645,-4.954082742017142,0.10069218771985403,-0.42839608456290207,0.38416804753500683,1.678335363769531,10.149020837402343,-5.856217260742187,0.5001500772508941,-0.5799555903764364,0.8091133242260736,0.9931131170579627,0.07845403360900433,-0.07873635158167165,0.03703901021223557
2,910.0,1.0414777221679687,14.173673828124999,-7.448361364746093,0.39902756562771124,-0.6036707512050616,0.18972128662900195,0.5159841792582509,8.674239334043023,-5.24096124573039,0.1801987418860565,-0.5135103024785523,0.5499636495982961,1.668758557128906,12.071564770507813,-5.7508723876953125,0.39902756562771124,-0.5799555903764364,0.18972128662900195,1.2631189889727794,9.727984392460973,-4.95211777112359,0.0775579837089889,-0.3978986892169361,0.30885010936574775,1.0414777221679687,14.173673828124999,-7.448361364746093,0.39902756562771124,-0.6036707512050616,0.18972128662900195,0.9925918772588502,0.08145126619290519,-0.08182980308202424,0.037827764444666116
2,920.0,2.7174188842773437,13.934253662109374,-5.7508723876953125,0.43486676935186963,-0.22729249648109362,-0.05875497710912209,0.9562711202620695,9.726242199656294,-5.342943474123374,0.23113234737921912,-0.45626674127906064,0.42821992425681255,1.678335363769531,12.071564770507813,-5.7508723876953125,0.39902756562771124,-0.22729249648109362,0.003064318534035846,1.4577079302846108,9.999506038286151,-4.909188497416396,0.03542063702938118,-0.36485007596229346,0.2373011624134515,2.7174188842773437,13.934253662109374,-5.7508723876953125,0.43486676935186963,-0.22729249648109362,-0.05875497710912209,0.992235017268115,0.08463821663048626,-0.08304057830050264,0.037554029718162754
2,930.0,1.668758557128906,12.071564770507813,-4.027047192382812,0.1450888210245668,0.03464012255866609,0.003064318534035846,1.0987686076354368,10.195306713826598,-5.079764217775263,0.21392364210828868,-0.3580853685115153,0.34318880311225725,2.104503259277344,12.071564770507813,-4.027047192382812,0.1450888210245668,-0.22729249648109362,-0.05875497710912209,1.6166113268971163,10.115220673004249,-4.837114418889875,-0.021211088716545284,-0.33394538714099176,0.17691865273803253,1.668758557128906,12.071564770507813,-4.027047192382812,0.1450888210245668,0.03464012255866609,0.003064318534035846,0.9920949841056581,0.08632221610196654,-0.08297280233078974,0.03757035524206458
2,940.0,2.104503259277344,9.868899243164062,-3.1172505615234374,-0.07554211342601412,-0.03916998473941473,-0.2323552836242833,1.2999155379638183,10.130025219694092,-4.687261486524898,0.15603049100142813,-0.2943022917570952,0.22807998576494917,2.142810485839844,10.364498986816406,-4.027047192382812,-0.07554211342601412,-0.22729249648109362,-0.13269831564781315,1.7334172655679423,10.07648232811584,-4.7546746659989045,-0.08483521375232701,-0.3088762091801996,0.13328203504981226,2.104503259277344,9.868899243164062,-3.1172505615234374,-0.07554211342601412,-0.03916998473941473,-0.2323552836242833,0.9920567800482497,0.08701066831004682,-0.08327431272809535,0.03630258393284081
2,950.0,2.4756045166015626,10.330980163574218,-3.890577697753906,-0.33067993919465083,-0.2897779483273028,-0.3597243496476863,1.5350533336913672,10.170216208470118,-4.5279247287707,0.05868840496221234,-0.29339742307113675,0.11051911868242208,2.104503259277344,10.330980163574218,-4.027047192382812,-0.33067993919465083,-0.2897779483273028,-0.13269831564781315,1.8062974077590193,9.904479536442643,-4.676662953167968,-0.146206783655783,-0.29104599370482326,0.10927864631138393,2.4756045166015626,10.330980163574218,-3.890577697753906,-0.33067993919465083,-0.2897779483273028,-0.3597243496476863,0.9920417794882254,0.08652492786486822,-0.08483830208619143,0.03419074592556738
2,960.0,2.142810485839844,10.364498986816406,-5.623979699707031,-0.49761868367929935,-0.3754456360396963,-0.13269831564781315,1.6566047641210626,10.209072764139375,-4.7471357229579665,-0.05257301276609,-0.30980706566484867,0.06187563181637504,2.104503259277344,9.868899243164062,-4.551377355957031,-0.33067993919465083,-0.2897779483273028,-0.13269831564781315,1.8376253211630142,9.628554257949094,-4.608841231775467,-0.1960299200686157,-0.2798824480525408,0.10446155571196683,2.142810485839844,10.364498986816406,-5.623979699707031,-0.49761868367929935,-0.3754456360396963,-0.13269831564781315,0.9920171381377074,0.0851318719417645,-0.08694492075943054,0.03309294146642268
2,970.0,1.7717092285156248,9.1554271484375,-5.710170959472656,-0.4304701384117312,-0.35332925009839405,0.10285451775111622,1.679625656999975,9.998343640999,-4.939742770260905,-0.12815243789521824,-0.3185115025515578,0.07007140900332327,1.9752163696289062,9.1554271484375,-4.551377355957031,-0.33067993919465083,-0.2897779483273028,0.10285451775111622,1.8339975965687443,9.282140140146117,-4.552655660426807,-0.22646474734643351,-0.27418800259933007,0.11497863377822197,1.7717092285156248,9.1554271484375,-5.710170959472656,-0.4304701384117312,-0.35332925009839405,0.10285451775111622,0.9919280668438412,0.08396566251572822,-0.08903046490601854,0.03319719934502361
2,980.0,1.9752163696289062,8.398859423828124,-4.551377355957031,-0.28378254249984136,-0.272058193326139,0.38943491630377297,1.7387437995257613,9.678446797564824,-4.86206968740013,-0.1592784588161429,-0.30922084070647404,0.13394411046341323,1.7717092285156248,8.398859423828124,-4.551377355957031,-0.3577258810385325,-0.35332925009839405,0.38943491630377297,1.805031698729905,8.90175707602121,-4.513313777212268,-0.23181482415535484,-0.27315151664655496,0.13480137341205936,1.9752163696289062,8.398859423828124,-4.551377355957031,-0.28378254249984136,-0.272058193326139,0.38943491630377297,0.9917584174117879,0.08337784048185592,-0.09083469800383889,0.03482003515218106
2,990.0,1.659181750488281,7.706935144042968,-3.6535517333984373,-0.29404134802683096,-0.27139203712308774,0.5048131706722531,1.7228313897182654,9.284144466860454,-4.620366096599792,-0.1862310366582805,-0.3016550799897968,0.20811792250518119,1.659181750488281,7.706935144042968,-3.6535517333984373,-0.3577258810385325,-0.2960398166359848,0.40249157788357787,1.7616631850343298,8.523787495838041,-4.502016058724618,-0.20821403283507262,-0.27649445221854535,0.15782269291490306,1.659181750488281,7.706935144042968,-3.6535517333984373,-0.29404134802683096,-0.27139203712308774,0.5048131706722531,0.991567707223072,0.0826916471917739,-0.09266223409938626,0.03700383559581357
2,1000.0,1.5514426757812498,6.993463049316406,-2.9855694702148434,-0.3577258810385325,-0.3623889744598913,0.47377029161006384,1.6885536469308624,8.826008183351645,-4.293406771322802,-0.2205300055343309,-0.31380185888381573,0.2612483963261577,1.5777788940429687,7.0269818725585935,-3.6535517333984373,-0.3577258810385325,-0.272058193326139,0.40249157788357787,1.7151444674904337,8.180056333624437,-4.530551204366068,-0.15304061857920634,-0.2842298320285732,0.17977561515056278,1.5514426757812498,6.993463049316406,-2.9855694702148434,-0.3577258810385325,-0.3623889744598913,0.47377029161006384,0.9913577942274682,0.08171965772948701,-0.09493983729928888,0.03896214391700408
2,1010.0,1.5777788940429687,6.768408093261718,-2.9831752685546875,-0.46031393630842815,-0.2960398166359848,0.40249157788357787,1.666398696353284,8.41448816533366,-4.0313604707691795,-0.26848679168915035,-0.31024945043424956,0.28949703263764176,1.5514426757812498,7.0269818725585935,-3.6535517333984373,-0.3577258810385325,-0.27139203712308774,0.40249157788357787,1.6762561659296442,7.89426336808675,-4.603420000714774,-0.06502005546557321,-0.29659485351169435,0.199204585698343,1.5777788940429687,6.768408093261718,-2.9831752685546875,-0.46031393630842815,-0.2960398166359848,0.40249157788357787,0.9912252337445377,0.08025611166795248,-0.09689113509538852,0.04054134270044669
2,1020.0,1.3263877197265623,7.0269818725585935,-3.8474820678710935,-0.4761684539410484,-0.19145329275693523,0.22262940305973472,1.5983965010279397,8.136986906778647,-3.9945847901895624,-0.31002312413953,-0.2864902188987867,0.2761235067220604,1.3263877197265623,7.0269818725585935,-3.8474820678710935,-0.3577258810385325,-0.19145329275693523,0.22262940305973472,1.6545555445222386,7.6800106093371525,-4.712555242834312,0.05477147129990927,-0.3140297574691592,0.2173128133183183,1.3263877197265623,7.0269818725585935,-3.8474820678710935,-0.4761684539410484,-0.19145329275693523,0.22262940305973472,0.9911815726755371,0.07878534192384114,-0.09823377025540232,0.041256348212142045
2,1030.0,0.9935936889648437,7.50821640625,-5.343858105468749,-0.3534624813390043,-0.1008560491419624,-0.11071516094712122,1.4774359386153206,8.011232806672918,-4.2644394532454,-0.3187109955794249,-0.24936338494742183,0.19875577318822407,1.1540052001953125,7.0269818725585935,-5.343858105468749,-0.3534624813390043,-0.19145329275693523,-0.11071516094712122,1.6575076471087518,7.541483552793559,-4.8374903532537585,0.2015103208629542,-0.3367092530316605,0.23682413187384677,0.9935936889648437,7.50821640625,-5.343858105468749,-0.3534624813390043,-0.1008560491419624,-0.11071516094712122,0.9912017016215714,0.07807347086714826,-0.09894833474736542,0.04040973768760782
2,1040.0,0.82360537109375,7.340622290039062,-6.543353137207031,-0.045298621807486415,-0.09046401237436258,-0.31815620257728694,1.3466698251110065,7.877110703346148,-4.720222190037727,-0.2640285208250372,-0.21758351043281,0.09537337803512187,1.0773907470703123,7.0269818725585935,-6.023811376953125,-0.045298621807486415,-0.19145329275693523,-0.11071516094712122,1.68877193064971,7.476652028182775,-4.9517180257934745,0.3655888227415883,-0.3636274429553637,0.2599405614941842,0.82360537109375,7.340622290039062,-6.543353137207031,-0.045298621807486415,-0.09046401237436258,-0.31815620257728694,0.9911449025250566,0.07898780331520057,-0.09947725767477177,0.03869088176227128
2,1050.0,1.1540052001953125,6.2009822998046875,-6.318298181152343,0.41181776472629567,-0.28324961753740036,-0.1310995407604901,1.3081369001278678,7.541885022637857,-5.039837388260651,-0.12885926371477063,-0.23071673185372807,0.050078794275999476,1.0773907470703123,6.655880615234374,-6.023811376953125,0.41181776472629567,-0.28324961753740036,-0.11071516094712122,1.7460627359750198,7.4798608022409905,-5.032261419874259,0.5326083849784184,-0.3918230989818653,0.28597559535764094,1.1540052001953125,6.2009822998046875,-6.318298181152343,0.41181776472629567,-0.28324961753740036,-0.1310995407604901,0.9907612657352787,0.08209154361538001,-0.10101863200073935,0.038056914932399794
2,1060.0,1.0773907470703123,5.209782812499999,-6.023811376953125,1.1038208284559559,-0.5165375198459554,0.2831163862967901,1.2619876695163568,7.075464580610286,-5.236632185999145,0.11767675471937467,-0.28788088945217355,0.09668631268015761,1.1540052001953125,6.655880615234374,-6.023811376953125,1.1038208284559559,-0.5165375198459554,0.2831163862967901,1.8199924668022287,7.539760981961077,-5.066722949658638,0.6848475532231314,-0.41642249033492296,0.3101216855604162,1.0773907470703123,5.209782812499999,-6.023811376953125,1.1038208284559559,-0.5165375198459554,0.2831163862967901,0.9898628672521843,0.08844517367096598,-0.10378117993388393,0.03972935918345341
2,1070.0,2.039859814453125,6.655880615234374,-5.580884069824219,1.7049601860894226,-0.8703996949067905,0.8713323135910623,1.4175620985037103,6.991547787535104,-5.30548256276416,0.43513344099338425,-0.4043846505430969,0.2516155128623386,2.039859814453125,6.655880615234374,-5.580884069824219,1.4961868320531544,-0.812977030203771,0.553042879773165,1.8945647116348787,7.633331611117559,-5.05462611449796,0.8043666485395795,-0.43183391676248006,0.3245987344797889,2.039859814453125,6.655880615234374,-5.580884069824219,0.2134364474576272,-0.8703996949067905,0.8713323135910623,0.9883065889446316,0.09751321594113538,-0.10846168150365784,0.044467095822004095
2,1080.0,3.347093920898437,9.191340173339842,-5.391742138671875,1.877094948957871,-1.0088269539008445,0.9184961727670923,1.8034684629826558,7.431506264696052,-5.322734477945703,0.7235257425862817,-0.5252731112146465,0.38499164484328935,3.306392492675781,9.191340173339842,-5.391742138671875,1.4961868320531544,-0.812977030203771,0.553042879773165,1.9501892393153788,7.723912658943443,-5.004914976321118,0.8771415012304254,-0.43386424652020644,0.3218627150863406,3.347093920898437,9.191340173339842,-5.391742138671875,0.2134364474576272,-1.0088269539008445,0.9184961727670923,0.9864401162455279,0.1074122626002259,-0.11380962663842457,0.04945575587362824
2,1090.0,3.5960908935546874,10.94868419189453,-5.066130712890625,1.4961868320531544,-0.812977030203771,0.553042879773165,2.161992949097062,8.134941850135748,-5.271413724934687,0.8780579604796561,-0.5828138950124714,0.41860189182926455,3.306392492675781,9.191340173339842,-5.066130712890625,1.4961868320531544,-0.812977030203771,0.553042879773165,1.9701220254555327,7.7701777410221045,-4.932796645551784,0.8964214153304635,-0.42185333662337604,0.29776594537207823,3.5960908935546874,10.94868419189453,-5.066130712890625,1.4961868320531544,-0.812977030203771,0.553042879773165,0.9848596524373204,0.11558970406856993,-0.11803675327037172,0.05251485686708212
2,1100.0,3.306392492675781,9.49300958251953,-4.314351391601562,1.156846862218837,-0.0750091884635731,0.4294042884868492,2.390872857812806,8.406555396612506,-5.080001258268062,0.9338157408274924,-0.4812529537026918,0.4207623711607815,3.306392492675781,9.191340173339842,-4.314351391601562,1.156846862218837,-0.0750091884635731,0.4294042884868492,1.9477396061849197,7.741517451887438,-4.856859974987905,0.8634561719249544,-0.39925936159316877,0.25252657036548,3.306392492675781,9.49300958251953,-4.314351391601562,1.156846862218837,-0.0750091884635731,0.4294042884868492,0.9838707860413328,0.1219595752827858,-0.11865342741072038,0.05518607192889816
2,1110.0,1.8650830932617186,8.801085302734375,-3.555389465332031,0.8352266473856834,0.2651301688144058,0.3165574276899639,2.2857149049025884,8.48546137783688,-4.775078899680856,0.9140979221391307,-0.3319763291992723,0.399921382466618,1.8650830932617186,8.801085302734375,-4.314351391601562,0.8352266473856834,-0.0750091884635731,0.3165574276899639,1.8895699326302184,7.627549493989805,-4.795356247926218,0.7856136091065935,-0.371523702500877,0.18969752552258703,1.8650830932617186,8.801085302734375,-3.555389465332031,0.8352266473856834,0.2651301688144058,0.3165574276899639,0.9832827770670919,0.12674824995573775,-0.11750064658326263,0.057301479116170874
2,1120.0,1.0390835205078124,8.051700183105469,-3.725377783203125,0.5060122518377453,0.08966462493070106,-0.041701378311009556,2.036388628023633,8.398709138890599,-4.56513867638531,0.8324807880788536,-0.24764813837327762,0.31159683031109253,1.0678139404296874,8.051700183105469,-4.314351391601562,0.5060122518377453,-0.0750091884635731,-0.041701378311009556,1.8116949069873234,7.436769908689708,-4.761294348563368,0.6735277604598285,-0.34233538544271497,0.11473849615926204,1.0390835205078124,8.051700183105469,-3.725377783203125,0.5060122518377453,0.08966462493070106,-0.041701378311009556,0.9828884275255839,0.13018894325568783,-0.11701602014451186,0.05734482644311911
2,1130.0,1.0678139404296874,6.8569935546875,-4.316745593261719,0.2820505363719081,-0.10538591132271105,-0.23528637091770888,1.842673690504844,8.09036602204998,-4.515460059760592,0.7223947377374647,-0.21919569296316432,0.20222019006533226,1.0390835205078124,6.8569935546875,-4.316745593261719,0.2820505363719081,-0.10538591132271105,-0.13776110279100282,1.7321842565487218,7.1898530827308385,-4.758833940045069,0.538552844233987,-0.31119261990247005,0.033631018189964675,1.0678139404296874,6.8569935546875,-4.316745593261719,0.2820505363719081,-0.10538591132271105,-0.23528637091770888,0.9825663045115108,0.13268867067442414,-0.11747413325105936,0.05618720432766949
2,1140.0,0.51714755859375,6.301538769531249,-4.953603234863281,0.23701837704564216,-0.43393415066759783,-0.28364931125923115,1.5775684641226253,7.732600571546234,-4.60308869478113,0.6253194655991001,-0.26214338450405106,0.10504628980041958,1.0390835205078124,6.306327172851562,-4.80755693359375,0.23701837704564216,-0.43393415066759783,-0.13776110279100282,1.6645894862023625,6.91262897074822,-4.783754835608766,0.39097755503167475,-0.2737386564666187,-0.04862821747758204,0.51714755859375,6.301538769531249,-4.953603234863281,0.23701837704564216,-0.43393415066759783,-0.28364931125923115,0.9820876525285546,0.13509480565342527,-0.11949225888649849,0.05454205994109748
2,1150.0,1.0223241088867188,6.282385156249999,-5.106832141113281,0.2134364474576272,-0.6734839212848348,-0.13776110279100282,1.466519593075444,7.442557488486988,-4.70383738404756,0.5429428619708055,-0.3444114918602078,0.05648481128213511,1.0678139404296874,6.301538769531249,-4.80755693359375,0.2134364474576272,-0.5774241968048416,-0.20184532952453507,1.6147323377246814,6.6302000216489345,-4.8273831693693525,0.23932782914946685,-0.22403769255807587,-0.12896894968528744,1.0223241088867188,6.282385156249999,-5.106832141113281,0.2134364474576272,-0.6734839212848348,-0.13776110279100282,0.9814207132073912,0.13734582192605682,-0.1228545413497368,0.053444088136081695
2,1160.0,1.6711527587890624,6.306327172851562,-4.80755693359375,0.04436600312321464,-0.6912036762859987,-0.08593415019361395,1.5074462262181678,7.2153114253599036,-4.724581293956798,0.4432274902012874,-0.413769928745366,0.0280010189869853,1.6711527587890624,6.282385156249999,-4.860229370117187,0.04436600312321464,-0.5774241968048416,-0.20184532952453507,1.5805094562418434,6.363998684169268,-4.8805791462534485,0.09070289032385535,-0.1574361008175921,-0.20593026599829645,1.6711527587890624,6.306327172851562,-4.80755693359375,0.04436600312321464,-0.6912036762859987,-0.08593415019361395,0.9808227291337306,0.13871554694751403,-0.1264498097531139,0.05249015777375501
2,1170.0,1.9512743530273435,6.076483813476562,-4.580107775878906,-0.1861240431325251,-0.5774241968048416,-0.20184532952453507,1.596211851580003,6.987545902983236,-4.69568659034122,0.3173571835345249,-0.44650078235726115,-0.017968250715318778,1.867477294921875,6.076483813476562,-4.860229370117187,-0.1861240431325251,-0.5774241968048416,-0.20184532952453507,1.5547520311621263,6.132216237055215,-4.935000291345603,-0.04864789926426826,-0.07291202796245767,-0.2784949785155786,1.9512743530273435,6.076483813476562,-4.580107775878906,-0.1861240431325251,-0.5774241968048416,-0.20184532952453507,0.9804702474952028,0.13898138875912489,-0.12950391121819144,0.0509019089472246
2,1180.0,1.867477294921875,5.123591552734375,-4.860229370117187,-0.3206875961488818,-0.3523966314141223,-0.25047473234727785,1.6504649402483775,6.614755032933465,-4.7285951462964135,0.18974822759784357,-0.4276799521686334,-0.0644695470417106,1.867477294921875,5.123591552734375,-4.860229370117187,-0.3206875961488818,-0.3523966314141223,-0.25047473234727785,1.5296309520375753,5.950905243949383,-4.981868851535571,-0.17325101962603912,0.025800948874173713,-0.3451103611502952,1.867477294921875,5.123591552734375,-4.860229370117187,-0.3206875961488818,-0.3523966314141223,-0.25047473234727785,0.9803558593918126,0.1385424777107039,-0.13150223870268538,0.049148062445039324
2,1190.0,2.214636535644531,5.116408947753906,-5.45877978515625,-0.45778254273683333,0.12683614106096197,-0.27538897434139537,1.7632992593276082,6.315085815897553,-4.874632074068381,0.0602420735309082,-0.31677673352271435,-0.10665343250164755,1.9512743530273435,5.123591552734375,-5.45877978515625,-0.45778254273683333,0.12683614106096197,-0.27538897434139537,1.4999697819515074,5.833010367011052,-5.011034715598733,-0.2787687265296383,0.1304836641911249,-0.40331904553797854,2.214636535644531,5.116408947753906,-5.45877978515625,-0.45778254273683333,0.12683614106096197,-0.27538897434139537,0.9806481941303372,0.1373068575599391,-0.13121658208912074,0.047520046304399405
2,1200.0,1.5586252807617187,5.1140147460937495,-5.643133312988281,-0.6034042887238411,0.39956049059015225,-0.5511776424046215,1.7223644636144304,6.074871601936793,-5.0283323218523615,-0.07248719892004166,-0.17350928870014104,-0.19555827448224236,1.867477294921875,5.123591552734375,-5.45877978515625,-0.5890153147379337,0.39956049059015225,-0.5511776424046215,1.4647808334690646,5.785949335165414,-5.012473133762716,-0.36239743360251153,0.2299806830129706,-0.44977968183748374,1.5586252807617187,5.1140147460937495,-5.643133312988281,-0.6034042887238411,0.39956049059015225,-0.5511776424046215,0.9812801082917509,0.1355055808441957,-0.12937096419384886,0.044617712341183474
2,1210.0,1.9919757812499999,5.760449194335937,-5.97592734375,-0.6585620223364864,0.7668790209526231,-0.7703430332084896,1.7762867271415446,6.011987120416622,-5.217851326231889,-0.18970216360333061,0.014568373230411796,-0.31051522622749184,1.5586252807617187,5.125985754394531,-5.45877978515625,-0.5890153147379337,0.7668790209526231,-0.6508346103810916,1.4274662097372053,5.810593713248512,-4.97953489524623,-0.4232218445876939,0.3125660850930135,-0.48081887178483557,1.9919757812499999,5.760449194335937,-5.97592734375,-0.32215313979559457,0.7668790209526231,-0.7703430332084896,0.982210548608503,0.13348271109616852,-0.12560004786217302,0.040858683503270606
2,1220.0,0.8499415893554687,5.125985754394531,-5.384559533691406,-0.5890153147379337,0.9195620226919743,-0.8450857591908422,1.5910176995843295,5.834786847212204,-5.251192967723792,-0.2695647938302512,0.1955671031227243,-0.4174293328201619,1.1563994018554686,5.427655163574219,-5.384559533691406,-0.5890153147379337,0.7668790209526231,-0.6508346103810916,1.3948719156030445,5.9023388318753005,-4.911808063485538,-0.46245205932061473,0.3683974794238898,-0.49371438717406285,0.8499415893554687,5.125985754394531,-5.384559533691406,-0.5890153147379337,0.9195620226919743,-0.8450857591908422,0.9831778057903036,0.1318577618540294,-0.12089706228601166,0.03686235438523334
2,1230.0,1.1563994018554686,5.427655163574219,-4.848258361816406,-0.423542113899998,0.8256339980617451,-0.6508346103810916,1.5040940400385574,5.753360510484607,-5.170606046542315,-0.3003602578442006,0.3215804821105285,-0.4641103883323479,0.8643067993164062,5.760449194335937,-5.027823486328125,-0.423542113899998,0.7668790209526231,-0.6508346103810916,1.3751520134335653,6.051901343557179,-4.81572250820768,-0.4831871079815708,0.3914330075971728,-0.4879988224132787,1.1563994018554686,5.427655163574219,-4.848258361816406,-0.423542113899998,0.8256339980617451,-0.6508346103810916,0.9839086098926734,0.13093774197382094,-0.11675652305197087,0.03386841346562849
2,1240.0,0.8643067993164062,6.260837341308593,-4.671087438964843,-0.3727810112274912,0.6944012260606447,-0.5463813177426523,1.3761365918941273,5.854855876649404,-5.070702325026821,-0.31484440852085877,0.39614463090055174,-0.48056457421440885,0.8643067993164062,6.260837341308593,-4.848258361816406,-0.3727810112274912,0.6944012260606447,-0.5463813177426523,1.3750110528285064,6.244956205244826,-4.7024601800712515,-0.48952433960255143,0.38025279404592127,-0.46578464403472886,0.8643067993164062,6.260837341308593,-4.671087438964843,-0.3727810112274912,0.6944012260606447,-0.5463813177426523,0.9844951249892807,0.13024683282116367,-0.11324192685588122,0.03132694390398865
2,1250.0,0.7829039428710937,7.594407666015624,-5.027823486328125,-0.32215313979559457,0.5157381324022939,-0.47523583525677665,1.2574900620895206,6.202766234522648,-5.062126557287082,-0.3163061547758059,0.42006333120090017,-0.47949882642288244,0.8762778076171874,7.594407666015624,-4.671087438964843,-0.32215313979559457,0.5157381324022939,-0.47523583525677665,1.397638829233086,6.463587218014996,-4.585342362481587,-0.4854059816689451,0.3376524790619438,-0.4310964445867081,0.7829039428710937,7.594407666015624,-5.027823486328125,-0.32215313979559457,0.5157381324022939,-0.47523583525677665,0.9849241653083706,0.12979988989812657,-0.11060098833506508,0.029048210845944198
2,1260.0,0.8762778076171874,7.843404638671874,-4.467580297851562,-0.28844563592120026,0.2491424199411753,-0.23528637091770888,1.181247611195054,6.530893915352494,-4.943217305399978,-0.3107340510048848,0.38587914894895525,-0.43065633532184777,0.8762778076171874,7.785943798828124,-4.467580297851562,-0.32215313979559457,0.2491424199411753,-0.23528637091770888,1.441500230613536,6.6914496342081495,-4.479057849894494,-0.4737354455111252,0.2694891021068228,-0.3889085582363086,0.8762778076171874,7.843404638671874,-4.467580297851562,-0.28844563592120026,0.2491424199411753,-0.23528637091770888,0.9851420952559323,0.1294250838471719,-0.10941353162084035,0.027800700065999277
2,1270.0,1.1875240234375,7.785943798828124,-3.69664736328125,-0.2959065853953745,-0.04263399699528134,0.04503215932626591,1.1825028936435433,6.7819038920476205,-4.6939033169762325,-0.3077685578829828,0.30017651976010795,-0.33551863639222507,1.1875240234375,7.785943798828124,-3.69664736328125,-0.32215313979559457,-0.04263399699528134,-0.054758039890814465,1.4996966898250872,6.919560382016313,-4.399436483690441,-0.45590126208966725,0.18316279770828642,-0.34403579575531146,1.1875240234375,7.785943798828124,-3.69664736328125,-0.2959065853953745,-0.04263399699528134,0.04503215932626591,0.9851629360981199,0.12889577792640405,-0.10986361556404667,0.027746238420266477
2,1280.0,1.8219874633789062,7.819462622070312,-3.5003228271484375,-0.3691837677310143,-0.23128943369940125,0.04876263406335303,1.310399807590616,6.989415638052159,-4.455187219010674,-0.32005159985258913,0.1938833290682061,-0.2586623823011095,1.8219874633789062,7.785943798828124,-3.69664736328125,-0.3691837677310143,-0.11111485466895198,-0.054758039890814465,1.560705381551511,7.148745206037921,-4.361048145976239,-0.4316659085954233,0.08587488252398526,-0.29967614261466,1.8219874633789062,7.819462622070312,-3.5003228271484375,-0.3691837677310143,-0.23128943369940125,0.04876263406335303,0.9851201927194554,0.12801376885689178,-0.11131621321241703,0.02755687855119009
2,1290.0,1.9800047729492187,7.340622290039062,-3.4452561889648434,-0.4693736606699255,-0.2797856052815338,-0.054758039890814465,1.4443208006623367,7.05965696844954,-4.253201013001508,-0.34991601201605643,0.09914954219825814,-0.2178815138190505,1.9800047729492187,7.340622290039062,-3.69664736328125,-0.4693736606699255,-0.11111485466895198,-0.054758039890814465,1.6109051590995975,7.38837059876265,-4.37330813999904,-0.3995053186347439,-0.01692878848248858,-0.2561958158097705,1.9800047729492187,7.340622290039062,-3.4452561889648434,-0.4693736606699255,-0.2797856052815338,-0.054758039890814465,0.9851224430595525,0.12669272321539782,-0.11298646134501449,0.026772852245826963
2,1300.0,2.212242333984375,6.8402341430664055,-3.892971899414062,-0.5299938751475911,-0.11111485466895198,-0.20024655463721203,1.5979051073267445,7.015772403372914,-4.181155190284019,-0.3859315846423634,0.05709666282481611,-0.21435452198268282,1.9800047729492187,7.024587670898437,-3.892971899414062,-0.4693736606699255,-0.11111485466895198,-0.20024655463721203,1.6378104965891769,7.652609828116346,-4.437926662507228,-0.35742464299696947,-0.12223571105474877,-0.21105555097742593,2.212242333984375,6.8402341430664055,-3.892971899414062,-0.5299938751475911,-0.11111485466895198,-0.20024655463721203,0.9852689099833646,0.12511525099443527,-0.11379255575168438,0.025349620200149324
2,1310.0,2.1787235107421874,6.8593877563476555,-4.7764323120117185,-0.5599709042848983,0.029177641693645662,-0.4557840741276795,1.7140687880098333,6.984495473967862,-4.30021061462956,-0.42073944857087037,0.051512858598582026,-0.26264043241168217,1.9800047729492187,7.024587670898437,-4.7764323120117185,-0.4693736606699255,-0.11111485466895198,-0.4138162333354495,1.6325803467701396,7.9549550783702445,-4.549272210187934,-0.30403032071699526,-0.22877598121598025,-0.15999252811948686,2.1787235107421874,6.8593877563476555,-4.7764323120117185,-0.5599709042848983,0.029177641693645662,-0.4557840741276795,0.9855382573540223,0.12351491226490334,-0.11376030900288885,0.022737674361231638
2,1320.0,1.5705962890624998,7.024587670898437,-5.324704492187499,-0.4599142425865974,-0.05142725887555811,-0.6028713637614002,1.6853742882203668,6.992513913353977,-4.505109390141148,-0.4285744073740158,0.030924835103754003,-0.3306866186816258,1.6831237670898436,7.024587670898437,-4.7764323120117185,-0.4599142425865974,-0.11111485466895198,-0.4138162333354495,1.5909979555713731,8.302571170845829,-4.697744316304169,-0.23949986295860579,-0.3352710159607223,-0.09903840629357695,1.5705962890624998,7.024587670898437,-5.324704492187499,-0.4599142425865974,-0.05142725887555811,-0.6028713637614002,0.9857101884986127,0.12252153987245487,-0.11396322782862858,0.01939791896549067
2,1330.0,1.5777788940429687,7.0652890991210935,-4.915296008300781,-0.2680612561078314,-0.2323552836242833,-0.4138162333354495,1.6638552093848875,7.0070689505074,-4.587146713773075,-0.3964717771207789,-0.021731188641853454,-0.34731254161239056,1.6831237670898436,7.0652890991210935,-4.7764323120117185,-0.2680612561078314,-0.2323552836242833,-0.4138162333354495,1.5125765413396808,8.692170771687953,-4.874248448452474,-0.16607449163818916,-0.4387613202493524,-0.026699538203927467,1.5777788940429687,7.0652890991210935,-4.915296008300781,-0.2680612561078314,-0.2323552836242833,-0.4138162333354495,0.9856342697596954,0.12238408178590415,-0.11514628011711478,0.016986964881465016
2,1340.0,1.6831237670898436,7.7979148071289055,-4.75009609375,-0.18066156226750466,-0.5154716699210734,-0.07407656977930133,1.6677089209258789,7.165238121831702,-4.61973658976846,-0.3533097341501241,-0.12047928489769746,-0.29266534724577276,1.6831237670898436,7.7979148071289055,-4.915296008300781,-0.18066156226750466,-0.5154716699210734,-0.07407656977930133,1.3988315284230612,9.107453097835792,-5.0721868069481415,-0.08789558587526546,-0.5340281396325209,0.05482208582481985,1.6831237670898436,7.7979148071289055,-4.75009609375,-0.18066156226750466,-0.5154716699210734,-0.07407656977930133,0.9853067221230877,0.12250859001879555,-0.11790826425472839,0.01612296285117201
2,1350.0,2.779668127441406,8.305485559082031,-3.967192150878906,-0.10685145496942385,-0.9705895878457016,0.16907044433441254,1.8901007622289843,7.393287609281768,-4.48922770199055,-0.3040180783139841,-0.2905013454872983,-0.2003181889297357,1.6831237670898436,8.305485559082031,-4.915296008300781,-0.10685145496942385,-0.6681546716604246,-0.05782235842485031,1.253492868410599,9.518009044328421,-5.2851975237960325,-0.010499616974290674,-0.6143740322617963,0.14010223325139998,2.779668127441406,8.305485559082031,-3.967192150878906,-0.10685145496942385,-0.9705895878457016,0.16907044433441254,0.9846229293353931,0.12285973548318833,-0.123125184093628,0.016228415384777393
2,1360.0,2.310404602050781,11.425130322265625,-5.72693037109375,0.111647779631393,-0.8839892814490364,0.16587289455976645,1.9741615301933437,8.199656151878541,-4.736768235811191,-0.22088490672490868,-0.4091989326796459,-0.1270799722318353,1.6831237670898436,11.425130322265625,-4.939238024902344,0.111647779631393,-0.824035223174422,0.16587289455976645,1.0861272550719532,9.881504979999594,-5.503023741989849,0.05962147032851412,-0.6733625112302262,0.221976107553027,2.310404602050781,11.425130322265625,-5.72693037109375,0.111647779631393,-0.8839892814490364,0.16587289455976645,0.9838407539530166,0.12430993077795865,-0.1277998685994643,0.016480459857014032
2,1370.0,-1.1516109985351561,13.761871142578125,-5.815515832519531,0.5704961722931083,-0.6681546716604246,-0.05782235842485031,1.3490070244476438,9.312099150018458,-4.952517755152859,-0.06260869092130529,-0.4609900804758017,-0.1132284494704383,-0.4333505004882812,11.425130322265625,-4.939238024902344,0.27592189930383637,-0.8839892814490364,0.16907044433441254,0.9146019034592457,10.152865670389083,-5.710277079518327,0.11573138366562732,-0.7062316849101227,0.29245857384439894,-1.1516109985351561,7.824251025390624,-5.815515832519531,0.5704961722931083,-0.6681546716604246,-0.05782235842485031,0.9829334741744952,0.12817675088937294,-0.13098107453544117,0.016014493193408415
2,1380.0,-1.24498486328125,14.39633458251953,-4.939238024902344,0.2768545179881082,-0.824035223174422,0.49455436514526346,0.830208646901865,10.328946236518673,-4.949861809102756,0.0052839508605774035,-0.5335991090155258,0.008328113452702054,-0.4333505004882812,11.425130322265625,-5.72693037109375,0.2768545179881082,-0.8839892814490364,0.49455436514526346,0.7589650531577926,10.300629820043083,-5.888561756919652,0.15221250850640003,-0.7098758981801525,0.3425584072582989,-1.24498486328125,8.303091357421874,-4.939238024902344,0.2768545179881082,-0.824035223174422,0.49455436514526346,0.9820448160317953,0.1302460723084009,-0.13528240555886856,0.017961366861067144
2,1390.0,-0.4333505004882812,8.303091357421874,-4.766855505371093,0.27592189930383637,-1.2467779496307585,1.2696937230157224,0.5774968174238357,9.923775260699315,-4.913260548356424,0.059411540549229196,-0.6762348771385723,0.2606012353653061,-0.4333505004882812,12.387599389648436,-5.815515832519531,0.4340673819082081,-1.1599111807528728,0.8334946412577501,0.6297922990086166,10.319126150635672,-6.016437606285854,0.16561778251319706,-0.6824425568595206,0.36279212497072943,-0.4333505004882812,8.303091357421874,-4.766855505371093,0.27592189930383637,-1.2467779496307585,1.2696937230157224,0.9807357561542409,0.13181477372154762,-0.142242278357164,0.023438777209350562
2,1400.0,1.675941162109375,11.125855114746093,-9.916783276367187,0.8680015325758059,-1.4606140908102165,1.1681715176707086,0.7971856863609437,10.16419123150867,-5.913965093958577,0.22112953895454457,-0.8331107198729012,0.44211529182638665,-0.06464344482421874,11.125855114746093,-6.9168485961914055,0.2768545179881082,-1.1599111807528728,0.8334946412577501,0.5237112900609213,10.223696532165635,-6.06856212106127,0.15487462705383392,-0.6244934825985036,0.3461332355555765,1.675941162109375,11.125855114746093,-4.7764323120117185,-0.15801225136376146,-1.4606140908102165,1.1681715176707086,0.9787717452008359,0.13632743601032682,-0.15032002074146097,0.028715716108905574
2,1410.0,-0.06464344482421874,12.387599389648436,-8.767566479492187,0.4340673819082081,-1.1599111807528728,0.8334946412577501,0.6248198601239112,10.608872863136623,-6.484685371065299,0.2637171075452773,-0.8984708120488956,0.5203911617126593,1.675941162109375,9.196128576660156,-6.9168485961914055,0.27592189930383637,-1.1599111807528728,0.8334946412577501,0.42958036555831663,10.038400655921269,-6.023964425453972,0.12191834740813721,-0.5414784907203462,0.29155187245375735,-0.06464344482421874,8.303091357421874,-4.7764323120117185,0.4340673819082081,-1.1599111807528728,0.8334946412577501,0.9773086761141943,0.13894356573694883,-0.15660792937291915,0.03219306741753529
2,1420.0,2.152387292480469,9.196128576660156,-6.9168485961914055,0.041701378311009556,-0.29550689167354377,0.7134532934679111,0.9303333465952228,10.32632400584133,-6.571118016090521,0.21931396169842374,-0.7778780279738252,0.5590035880637096,1.675941162109375,9.196128576660156,-6.9168485961914055,0.041701378311009556,-0.29550689167354377,0.7134532934679111,0.3365698537833381,9.793744457256418,-5.880019247226113,0.07249926119000161,-0.4449593665717214,0.20518443030512443,2.152387292480469,9.196128576660156,-6.9168485961914055,0.041701378311009556,-0.29550689167354377,0.7134532934679111,0.9767536908620726,0.13954009800594983,-0.1588327947021785,0.03539677616540742
2,1430.0,1.8291700683593748,7.824251025390624,-5.858611462402344,-0.27165849960430827,0.46124655499269995,-0.04503215932626591,1.1101006909480533,9.82590940975119,-6.428616705352886,0.12111946943787735,-0.5300531113805202,0.43819643858571455,-0.06464344482421874,7.824251025390624,-5.858611462402344,-0.27165849960430827,0.3883690663788909,-0.04503215932626591,0.2397862200372944,9.52752987798427,-5.65609794692988,0.015152731810332986,-0.35040574908546956,0.09904216378842681,1.8291700683593748,7.824251025390624,-5.858611462402344,-0.27165849960430827,0.46124655499269995,-0.04503215932626591,0.9771426336114319,0.13907256086268757,-0.15688877675973462,0.035171126237913436
2,1440.0,-0.36631285400390623,6.277596752929687,-4.290409374999999,-0.4039571215302907,0.7964563563680994,-0.5347901998095602,0.8148179819576614,9.11624687838689,-6.000975239282309,0.016104151244243747,-0.26475121783079636,0.2435991109066596,-0.36631285400390623,7.824251025390624,-4.441244079589843,-0.39836140942466,0.3883690663788909,-0.5347901998095602,0.14435238956856394,9.27560940488484,-5.384635565660894,-0.04141776187645275,-0.27209035753032684,-0.011754928733974998,-0.36631285400390623,6.277596752929687,-4.290409374999999,-0.4039571215302907,0.7964563563680994,-0.5347901998095602,0.9779883725575294,0.13833861413242238,-0.15275956511222535,0.03264485026646462
2,1450.0,-1.2689268798828124,7.40526573486328,-3.6846763549804686,-0.39836140942466,0.3883690663788909,-0.82296937324954,0.3980690095895667,8.774050649682168,-5.537715462421941,-0.06678896088953701,-0.1341271609888589,0.030285414075419653,-0.37828386230468747,7.824251025390624,-4.441244079589843,-0.39836140942466,0.3883690663788909,-0.590747320865867,0.06352813948740853,9.05879142120541,-5.099523475460672,-0.09057900686417573,-0.21816292415998761,-0.11277388402693309,-1.2689268798828124,7.40526573486328,-3.6846763549804686,-0.39836140942466,0.3883690663788909,-0.82296937324954,0.9785638179495324,0.13792020256148688,-0.1502771205799948,0.028419341224218738
2,1460.0,-1.3215993164062498,9.804255798339844,-4.441244079589843,-0.40169219043991633,-0.08686676887788572,-0.9244915785945537,0.054135344390403406,8.980091679413704,-5.318421185855522,-0.1337696067996129,-0.12467508256666426,-0.16066998445857503,-0.37828386230468747,9.062053283691405,-4.290409374999999,-0.39836140942466,-0.08686676887788572,-0.590747320865867,0.009596807774044747,8.87832162204271,-4.827879069985914,-0.12875446415901956,-0.18901051671458416,-0.19384684916506245,-1.3215993164062498,9.804255798339844,-4.441244079589843,-0.40169219043991633,-0.08686676887788572,-0.9244915785945537,0.9787716225153902,0.13762612510539637,-0.15006259710670772,0.023374721317150536
2,1470.0,-0.37828386230468747,10.28549033203125,-4.915296008300781,-0.18505819320764305,-0.37198162378382965,-0.590747320865867,-0.03234849694861477,9.241171409937213,-5.237796150344574,-0.14402732408121893,-0.17413639081009735,-0.24668545174003342,-0.37828386230468747,9.062053283691405,-3.6846763549804686,-0.18505819320764305,-0.2488759574599548,-0.590747320865867,-0.01405453773586053,8.72389752531333,-4.588083450372493,-0.15532848937048904,-0.1793937196157931,-0.2509476839980165,-0.37828386230468747,10.28549033203125,-4.915296008300781,-0.18505819320764305,-0.37198162378382965,-0.590747320865867,0.9785445241010021,0.13816864042106766,-0.15153314564625958,0.019943593625179834
2,1480.0,0.11731588134765625,9.062053283691405,-3.564966271972656,-0.15801225136376146,-0.2488759574599548,-0.21436906614189896,-0.0024156212893605665,9.205347784688051,-4.90323017467019,-0.14682430953772743,-0.18908430414006885,-0.24022217462040654,0.11731588134765625,9.062053283691405,-3.564966271972656,-0.15801225136376146,-0.3125604904716563,-0.21436906614189896,-0.013574876929933989,8.586893716669431,-4.393110415542659,-0.17178502355980613,-0.18201513830207214,-0.2857361987563188,0.11731588134765625,9.062053283691405,-3.564966271972656,-0.15801225136376146,-0.2488759574599548,-0.21436906614189896,0.9783429152405192,0.13854080147644068,-0.15267872148583625,0.01846062107292375
2,1490.0,0.2657563842773437,7.841010437011718,-2.8898014038085935,-0.12363859128631587,-0.3125604904716563,0.01119142421126135,0.05121877982398029,8.932480315152786,-4.500544420497871,-0.14218716588744512,-0.2137795414063864,-0.18993945485407296,0.21308394775390624,8.264784130859374,-3.564966271972656,-0.12363859128631587,-0.37198162378382965,-0.17253445659027916,-0.00018092548657377906,8.466673442437887,-4.252363650933195,-0.1805305003120913,-0.18991122413445832,-0.3030638614746929,0.2657563842773437,7.841010437011718,-2.8898014038085935,-0.12363859128631587,-0.3125604904716563,0.01119142421126135,0.9780432478195827,0.13891206229732847,-0.15430025805248845,0.018063075811196067
2,1500.0,0.21308394775390624,7.75721337890625,-3.268085266113281,-0.09885758053280859,-0.5759586531581288,-0.10125574286379317,0.08359181340996549,8.697426927903479,-4.254052589620953,-0.13352124881651783,-0.2862153637567349,-0.172202712456017,0.2657563842773437,8.264784130859374,-3.564966271972656,-0.12363859128631587,-0.3525298626547325,-0.17253445659027916,0.01444468778001206,8.366948885904762,-4.1687038000686325,-0.18396917629870893,-0.19733836169138155,-0.3079067194764731,0.21308394775390624,7.75721337890625,-3.268085266113281,-0.09885758053280859,-0.5759586531581288,-0.10125574286379317,0.9775258644074144,0.13951338333801333,-0.15713655505279325,0.01695002508134469
2,1510.0,0.8786720092773437,8.264784130859374,-3.9552211425781247,-0.08593415019361395,-0.6140627879726615,-0.17253445659027916,0.24260785258344114,8.610898368494658,-4.194286300212387,-0.12400382909193707,-0.3517848485999202,-0.17226906128286945,0.469263525390625,8.097190014648437,-3.9552211425781247,-0.12363859128631587,-0.3525298626547325,-0.17253445659027916,0.02076358747541657,8.289698160022517,-4.135587678910345,-0.18399858989509774,-0.20051880376023254,-0.3034858869814414,0.8786720092773437,8.264784130859374,-3.9552211425781247,-0.08593415019361395,-0.6140627879726615,-0.17253445659027916,0.9769540460427516,0.14022069284837324,-0.16018523838449614,0.015480265550751134
2,1520.0,1.235408056640625,8.437166650390624,-4.455609289550781,-0.12523736617363893,-0.3525298626547325,-0.19078713655388396,0.44116789339487794,8.576152024873851,-4.246550898080066,-0.12425053650827744,-0.35193385141088274,-0.17597267633707236,0.469263525390625,8.097190014648437,-4.390965844726562,-0.12523736617363893,-0.3525298626547325,-0.19078713655388396,0.013667497400026679,8.23338682453694,-4.138865997481154,-0.1817606350471349,-0.19859299968757116,-0.29101358276727474,1.235408056640625,8.437166650390624,-4.455609289550781,-0.12523736617363893,-0.3525298626547325,-0.19078713655388396,0.97660640226129,0.1407180974257511,-0.16198835738390768,0.014075659529835284
2,1530.0,0.469263525390625,8.097190014648437,-4.390965844726562,-0.2230290967815655,0.011591117933092114,-0.2901776420491336,0.44678701979402735,8.480359622828768,-4.275433887409365,-0.14400624856293506,-0.27922885754208776,-0.19881366947948462,0.469263525390625,8.097190014648437,-4.426878869628906,-0.19998009215599152,-0.008660030639666522,-0.2901776420491336,-0.00467171480139157,8.19490930045048,-4.161525683955586,-0.17766317037866447,-0.19355144766674026,-0.2702499126819058,0.469263525390625,8.097190014648437,-4.390965844726562,-0.2230290967815655,0.011591117933092114,-0.2901776420491336,0.9766337725277254,0.1408084231704155,-0.16188572662873932,0.012348029656974253
2,1540.0,-0.6272808349609375,7.618349682617187,-4.426878869628906,-0.27752067419115944,0.1281684534670645,-0.38863552886011143,0.23197344884303442,8.307957634786451,-4.3057228838532735,-0.17070913368857996,-0.19774939534025732,-0.23677804135561,-0.6272808349609375,8.097190014648437,-4.455609289550781,-0.19998009215599152,-0.008660030639666522,-0.2901776420491336,-0.024371160252049967,8.170889333078287,-4.187457046903312,-0.1717809684130142,-0.18852941629933792,-0.24026041796915737,-0.6272808349609375,7.618349682617187,-4.426878869628906,-0.27752067419115944,0.1281684534670645,-0.38863552886011143,0.9768105906352873,0.14072149615206728,-0.16104436353500481,0.010160881707336561
2,1550.0,-1.3335703247070312,7.6997525390625,-4.951209033203125,-0.19998009215599152,-0.008660030639666522,-0.3634548243847734,-0.0811353058669787,8.186316615641662,-4.434820113723244,-0.17656332538206226,-0.15993152240013916,-0.26211339796144273,-0.6272808349609375,8.097190014648437,-4.608838195800781,-0.19998009215599152,-0.008660030639666522,-0.2901776420491336,-0.03247969307813731,8.156400781277158,-4.2031738813787145,-0.16444462794828066,-0.18562679122508424,-0.20032732738164266,-1.3335703247070312,7.6997525390625,-4.951209033203125,-0.19998009215599152,-0.008660030639666522,-0.10192189906684444,0.9768253599109306,0.1410042032415076,-0.16082639947468272,0.008056062010594726
2,1560.0,-1.158793603515625,8.231265307617187,-5.327098693847656,-0.07301071985441929,-0.32162021483315356,-0.21037212892359133,-0.29666696539670795,8.195306354036767,-4.613275829748127,-0.15585280427653367,-0.19226926088674207,-0.25176514415387247,-0.6272808349609375,8.231265307617187,-4.608838195800781,-0.07301071985441929,-0.3214869835925433,-0.21037212892359133,-0.02035225301975239,8.143219474918295,-4.1994633641607715,-0.1564995260483234,-0.18496872681695678,-0.15072833477715997,-1.158793603515625,8.231265307617187,-5.327098693847656,-0.07301071985441929,-0.32162021483315356,-0.10125574286379317,0.9764839626465899,0.14179442925727265,-0.16226535162430833,0.00658530089342887
2,1570.0,-0.23223756103515625,8.444349255371094,-4.608838195800781,-0.032508422708902016,-0.35999081212890677,-0.10192189906684444,-0.28378108452439765,8.245114934303633,-4.612388302958658,-0.13118392796300735,-0.22581357113517503,-0.22179649513646688,-0.23223756103515625,8.444349255371094,-4.608838195800781,-0.07301071985441929,-0.3214869835925433,-0.10192189906684444,0.011505255179410553,8.120370241463192,-4.17379629986713,-0.14893650256347393,-0.18553967964019089,-0.09289889424208544,-0.23223756103515625,8.444349255371094,-4.608838195800781,-0.032508422708902016,-0.35999081212890677,0.01119142421126135,0.9760646219588073,0.1426858273665433,-0.16403229541803857,0.005658134765519975
2,1580.0,0.7254431030273437,9.167398156738281,-3.778050219726562,-0.05742266470301955,-0.3214869835925433,0.054225114928373445,-0.08193624701404936,8.429571578790563,-4.445520686312239,-0.11643167531100979,-0.24494825362664868,-0.16659217312349883,0.7254431030273437,8.444349255371094,-3.778050219726562,-0.07301071985441929,-0.3214869835925433,0.054225114928373445,0.05444273856086776,8.07721473012314,-4.13080781133407,-0.14224071235321756,-0.18671924699388498,-0.02897400303428669,0.7254431030273437,9.167398156738281,-3.778050219726562,-0.05742266470301955,-0.3214869835925433,0.054225114928373445,0.9756787270712051,0.14331323462232243,-0.165777000470847,0.0055067629047264866
2,1590.0,0.8379705810546875,8.80347950439453,-3.5482068603515624,-0.16667228200342796,-0.1866569680949661,0.13589586542245927,0.10204511859969802,8.504353163911357,-4.266057921120104,-0.12647979664949344,-0.23328999652031218,-0.1060945654143072,0.7254431030273437,8.444349255371094,-3.778050219726562,-0.16667228200342796,-0.1866569680949661,0.13589586542245927,0.09736047048750827,8.00751716132518,-4.078862905589849,-0.13607567055546876,-0.18911600086576769,0.038894952817914163,0.8379705810546875,8.80347950439453,-3.5482068603515624,-0.16667228200342796,-0.1866569680949661,0.13589586542245927,0.9754766435866367,0.14333287538486977,-0.1669366399675597,0.005758722705306686
2,1600.0,0.7302315063476562,8.066065393066406,-3.7158009765625,-0.23009035253390894,-0.08593415019361395,0.1438897398590745,0.22768239614928967,8.416695609742368,-4.156006532208583,-0.14720190782637654,-0.20381882725497255,-0.056097704359630865,0.7254431030273437,8.066065393066406,-3.778050219726562,-0.16667228200342796,-0.09712557440487529,0.1438897398590745,0.1326026077170732,7.912129340414345,-4.025268859077927,-0.12957930273742188,-0.19429809217232116,0.1090765534152378,0.7302315063476562,8.066065393066406,-3.7158009765625,-0.23009035253390894,-0.08593415019361395,0.1438897398590745,0.9754012238863407,0.14303201709229016,-0.16762299937713562,0.0060683282172509035
2,1610.0,0.1867477294921875,7.52737001953125,-4.2137949218749995,-0.22169678437546295,0.005595712105630675,0.1767978562898073,0.21949546281786925,8.238830491700146,-4.167564210141866,-0.16210088313619384,-0.16193591938285193,-0.009518592229743238,0.1867477294921875,7.52737001953125,-3.995922570800781,-0.16667228200342796,-0.09712557440487529,0.1767978562898073,0.15836746513803895,7.798073582103026,-3.974087020590581,-0.12203401061653847,-0.20386881609493454,0.1805946164197335,0.1867477294921875,7.52737001953125,-4.2137949218749995,-0.22169678437546295,0.005595712105630675,0.1767978562898073,0.9753986185973289,0.14274958880060515,-0.16785850574219482,0.006603921992138593
2,1620.0,-0.6105214233398437,7.345410693359375,-4.2329485351562495,-0.15881163880742297,-0.09712557440487529,0.18412557452337128,0.053492085586326676,8.060146532031993,-4.180641075144743,-0.16144303427043968,-0.1489738503872566,0.02921024112087967,0.1867477294921875,7.352593298339843,-3.995922570800781,-0.15881163880742297,-0.09712557440487529,0.18412557452337128,0.17697220540853212,7.674754368612478,-3.927448170564465,-0.11340478093249777,-0.218497299873177,0.2528481240901937,-0.6105214233398437,7.345410693359375,-4.2329485351562495,-0.15881163880742297,-0.09712557440487529,0.18412557452337128,0.9752763435342998,0.14278393450914062,-0.16851653610512338,0.00713994730978816
2,1630.0,-0.45968671875,7.352593298339843,-3.995922570800781,-0.050494640191286334,-0.3177565088554562,0.21769984715715532,-0.049143675280938666,7.918635885293563,-4.143697374275951,-0.139253355454609,-0.18273038208089654,0.0669081623281348,0.1867477294921875,7.345410693359375,-3.995922570800781,-0.050494640191286334,-0.3177565088554562,0.21769984715715532,0.19042018110617953,7.550488906195084,-3.888112083668775,-0.10438553970637604,-0.237532444823524,0.325129805109085,-0.45968671875,7.352593298339843,-3.995922570800781,-0.050494640191286334,-0.3177565088554562,0.21769984715715532,0.9748861967853032,0.1433240262731698,-0.17027830443397027,0.0077734065522711
2,1640.0,0.1867477294921875,7.098807922363281,-3.725377783203125,0.014122511504686942,-0.486960184430479,0.3650535992720964,-0.001965394326313437,7.754670292707507,-4.060033456061387,-0.10857818206274983,-0.24357634255081306,0.12653724971692715,0.1867477294921875,7.345410693359375,-3.902548706054687,0.00013323124061025417,-0.3177565088554562,0.3650535992720964,0.19654631135922687,7.431059138491999,-3.860586949972369,-0.09595085461003401,-0.25961444057696154,0.39619524565375475,0.1867477294921875,7.098807922363281,-3.725377783203125,0.014122511504686942,-0.486960184430479,0.3650535992720964,0.974282957964428,0.14404775274464596,-0.17303397362824022,0.00906679214074997
2,1650.0,0.9217676391601562,6.981492041015625,-3.5003228271484375,0.03317457891195329,-0.4643108735267358,0.5501117924797395,0.18278121237098052,7.600034642369131,-3.948091330278797,-0.08022762986780921,-0.28772324874599764,0.21125215826948962,0.612915625,7.352593298339843,-3.806780639648437,0.00013323124061025417,-0.3177565088554562,0.5501117924797395,0.18920283082525002,7.319451446044015,-3.8501473774335824,-0.08869506545793436,-0.28393482945821713,0.46419470872891444,0.9217676391601562,6.981492041015625,-3.5003228271484375,0.03317457891195329,-0.4643108735267358,0.5501117924797395,0.9736544910360346,0.1446814680994258,-0.17588757894516924,0.011303293624518453
2,1660.0,1.1252747802734375,7.541735229492187,-3.902548706054687,0.00013323124061025417,-0.2851148549059439,0.5670321600372418,0.37127992595147197,7.5883747597937425,-3.9389828054339753,-0.06415545764612532,-0.2872015699779869,0.2824081586230401,0.612915625,7.098807922363281,-3.725377783203125,0.00013323124061025417,-0.2851148549059439,0.5581056669163548,0.16252282482556515,7.216046586944892,-3.861166562530771,-0.08233116787169549,-0.31110678737139386,0.5270886132323264,1.1252747802734375,7.541735229492187,-3.902548706054687,0.00013323124061025417,-0.2851148549059439,0.5670321600372418,0.9731923333386564,0.14512196529896992,-0.17789900751785057,0.013720081734078382
2,1670.0,0.612915625,7.931990100097655,-3.806780639648437,-0.14109188380625917,-0.12883460967011579,0.5581056669163548,0.4196070657611776,7.657097827854526,-3.9125423722768677,-0.07954274287815209,-0.2555281779164127,0.337547660281703,0.612915625,6.981492041015625,-3.806780639648437,-0.08806585004337801,-0.2279586526841449,0.5670321600372418,0.11570786212202361,7.120318997791403,-3.8964720824504657,-0.07563464127410001,-0.34284718928490826,0.5831006002946711,0.612915625,7.931990100097655,-3.806780639648437,-0.14109188380625917,-0.12883460967011579,0.5581056669163548,0.9729731415746491,0.1448869962283004,-0.17908924227724365,0.016064476302107288
2,1680.0,0.4429273071289062,6.76122548828125,-3.5601778686523438,-0.18825574298228914,-0.08060490056920377,0.7009295568505473,0.4242711140347234,7.477923359939871,-3.842069471551963,-0.1012853428989795,-0.22054352244697092,0.41022403959547193,0.4429273071289062,7.206546997070312,-3.902548706054687,-0.08806585004337801,-0.2279586526841449,0.7009295568505473,0.05492813231306978,7.033784634203641,-3.9576062493229087,-0.06693468077353468,-0.38064435782632106,0.6307830230943534,0.4429273071289062,6.76122548828125,-3.5601778686523438,-0.18825574298228914,-0.08060490056920377,0.5898147021815953,0.9728105941806225,0.14428961189490047,-0.18015409460096446,0.019093400631365227
2,1690.0,-0.16998831787109375,6.885723974609375,-4.2880151733398435,-0.08806585004337801,-0.2279586526841449,0.7414318539960645,0.30541922765356,7.359483482873773,-3.931258611909539,-0.0986414443278592,-0.22202654849440573,0.47646560247559044,-0.16998831787109375,7.206546997070312,-4.000710974121094,-0.08806585004337801,-0.2279586526841449,0.7414318539960645,-0.008009736878291951,6.960897860412595,-4.044809406547793,-0.054849650204388645,-0.4243478126172155,0.6689706401632511,-0.16998831787109375,6.885723974609375,-4.2880151733398435,-0.08806585004337801,-0.2279586526841449,0.7414318539960645,0.97243416305987,0.1441660144228425,-0.18190945587224314,0.02229144822005699
2,1700.0,-0.6823474731445313,7.206546997070312,-4.563348364257812,-0.055024502372034975,-0.4334012257051568,0.7780704451638843,0.10786588749394174,7.328896185713081,-4.057676562379194,-0.08991805593669437,-0.26430148393655595,0.5367865710132492,-0.22026655273437498,7.003039855957031,-4.000710974121094,-0.055024502372034975,-0.4334012257051568,0.7414318539960645,-0.058776869295571875,6.907331053551323,-4.157489177386077,-0.03866276810089175,-0.4716007643337671,0.6969587233791076,-0.6823474731445313,7.206546997070312,-4.563348364257812,-0.055024502372034975,-0.4334012257051568,0.7780704451638843,0.9718360931193171,0.14419736541192407,-0.1846337735792869,0.02553620121934134
2,1710.0,-0.5722141967773438,7.307103466796875,-4.000710974121094,0.0031975497746461,-0.5358560497344422,0.7843323134725663,-0.028150129360315357,7.324537641929839,-4.046283444727574,-0.07129493479442628,-0.3186123970961332,0.5862957195051126,-0.22026655273437498,7.043741284179687,-4.177881896972656,0.0031975497746461,-0.5358560497344422,0.7414318539960645,-0.08424313407047503,6.8793198286007,-4.29575057988545,-0.018156990859097562,-0.5183298637083862,0.7147249534925557,-0.5722141967773438,7.307103466796875,-4.000710974121094,0.0031975497746461,-0.5358560497344422,0.7843323134725663,0.9710835068488498,0.14451502772106117,-0.18783974202528045,0.028782995063002612
2,1720.0,-0.22026655273437498,7.003039855957031,-3.8666356811523435,0.029843797896696934,-0.6460382857191225,0.7317059734315159,-0.06657341403512729,7.2602380847352785,-4.010353892012528,-0.05106718825620164,-0.38409757482073104,0.6153777702903933,-0.22026655273437498,7.043741284179687,-4.113238452148437,0.029843797896696934,-0.6460382857191225,0.7317059734315159,-0.07511603898448789,6.8850198839369225,-4.460476779437767,0.006731288389374694,-0.5597328038686827,0.7229605220247817,-0.22026655273437498,7.003039855957031,-3.8666356811523435,0.029843797896696934,-0.6460382857191225,0.7317059734315159,0.9701868093220684,0.1450182979861638,-0.19157553360806434,0.03171849916761678
2,1730.0,-0.105344873046875,7.043741284179687,-4.177881896972656,0.05635681477813752,-0.7089234312871624,0.6802787145559578,-0.07432770583747683,7.2169387246241605,-4.043859493004554,-0.029582387649333814,-0.4490627461140173,0.6283579591435062,-0.105344873046875,7.003039855957031,-4.113238452148437,0.03104287906218922,-0.7089234312871624,0.6884058202331833,-0.026032372795908535,6.93527331413836,-4.650819203368618,0.036155108437697675,-0.591145073382969,0.722864424124309,-0.105344873046875,7.043741284179687,-4.177881896972656,0.05635681477813752,-0.7089234312871624,0.6802787145559578,0.9691907155039656,0.1457013520095323,-0.19559778084206056,0.034379952489306774
2,1740.0,0.07900865478515624,6.687005236816406,-4.113238452148437,0.06821439519245014,-0.8084471680230223,0.5898147021815953,-0.043660433712950225,7.11095202706261,-4.05773528483333,-0.010023031080977025,-0.5209396304958183,0.620649307751124,0.0526724365234375,6.756437084960937,-4.177881896972656,0.03104287906218922,-0.806715161895089,0.6802787145559578,0.06601085848332944,7.042682124169731,-4.861538481871088,0.07044767665007293,-0.6086702887024122,0.7157085122578365,0.07900865478515624,6.687005236816406,-4.113238452148437,0.06821439519245014,-0.8084471680230223,0.5898147021815953,0.968074452134044,0.1465374693804395,-0.20005901120572692,0.036537887573503805
2,1750.0,0.086191259765625,6.512228515625,-4.529829541015625,0.03104287906218922,-0.8306967852049347,0.6884058202331833,-0.017690095017235178,6.991207324775088,-4.15215413606979,-0.0018098490523437765,-0.5828910614376416,0.6342006102475359,0.0526724365234375,6.687005236816406,-4.529829541015625,0.03104287906218922,-0.806715161895089,0.6653568156076093,0.2030039533605216,7.219483777319097,-5.081698232093082,0.11003476237089183,-0.6097269626234819,0.7023439979711856,0.086191259765625,6.512228515625,-4.529829541015625,0.03104287906218922,-0.8306967852049347,0.6884058202331833,0.9669131874997563,0.14708967735315684,-0.20472817058929557,0.03911381881593082
