activity,time_ms,ax,ay,az,gx,gy,gz,ax_ema,ay_ema,az_ema,gx_ema,gy_ema,gz_ema,ax_median,ay_median,az_median,gx_median,gy_median,gz_median,ax_lp,ay_lp,az_lp,gx_lp,gy_lp,gz_lp,ax_outlier,ay_outlier,az_outlier,gx_outlier,gy_outlier,gz_outlier,q0,q1,q2,q3
3,0.0,-1.4053963745117186,8.75320126953125,-3.2728736694335936,-0.19265237392242754,-0.15228330801752052,0.095926493239383,-1.4053963745117186,8.75320126953125,-3.2728736694335936,-0.19265237392242754,-0.15228330801752052,0.095926493239383,-1.4053963745117186,8.33182177734375,-3.2513258544921873,-0.06475038293658353,-0.15228330801752052,0.08366921910323961,-1.3803437318587144,8.665156612894947,-3.232719831819257,-0.09093404641155405,-0.22728345491114513,0.09406493292705637,-1.4053963745117186,8.75320126953125,-3.2728736694335936,-0.09166309353985487,-0.15228330801752052,0.095926493239383,0.9999997029487501,2.4092660378538232e-05,-0.0006028887041864679,0.0004796323237214914
3,10.0,-1.5083470458984374,8.432378247070313,-3.2513258544921873,-0.14282388993419248,-0.23009035253390894,0.08366921910323961,-1.4259865087890624,8.689036665039062,-3.2685641064453126,-0.18268667712478054,-0.16784471692079822,0.09347503841215433,-1.4820108276367188,8.432378247070313,-3.2513258544921873,-0.06475038293658353,-0.23009035253390894,0.095926493239383,-1.369482756569934,8.682151161150594,-3.229157010656139,-0.08849312030245798,-0.22202397401556448,0.09019420581152701,-1.5083470458984374,8.432378247070313,-3.2513258544921873,-0.14282388993419248,-0.23009035253390894,0.08366921910323961,0.9999983099682552,0.0002946438420320119,-0.0015775857297494825,0.0008969219057606745
3,20.0,-1.4867992309570313,8.33182177734375,-3.265691064453125,-0.06475038293658353,-0.28618070483082597,0.1508177643708077,-1.4381490532226562,8.617593687500001,-3.2679894980468753,-0.15909941828714114,-0.19151191450280378,0.10494358360388502,-1.4820108276367188,8.480262280273436,-3.2513258544921873,-0.06475038293658353,-0.23915007689540624,0.095926493239383,-1.3543156884189178,8.706763643686832,-3.2243746056702656,-0.08596243856662436,-0.21372618873535448,0.08454483496896792,-1.4867992309570313,8.33182177734375,-3.265691064453125,-0.06475038293658353,-0.28618070483082597,0.1508177643708077,0.9999941699617539,0.0009554922137936709,-0.0028336590005723227,0.0016484701394034584
3,30.0,-1.4820108276367188,8.480262280273436,-3.1962592163085937,-0.03317457891195329,-0.279385911559703,0.16387442595061263,-1.4469214081054687,8.590127406054687,-3.2536434416992193,-0.1339144504121036,-0.20908671391418365,0.11672975207323055,-1.4820108276367188,8.480262280273436,-3.2513258544921873,-0.042234303273450575,-0.23915007689540624,0.08366921910323961,-1.3351611312568044,8.73885835194518,-3.218549814298544,-0.08421238580910685,-0.20139556850663376,0.07686603268985695,-1.4820108276367188,8.480262280273436,-3.1962592163085937,-0.03317457891195329,-0.11770980107915956,0.16387442595061263,0.9999871498116524,0.0017747572374283303,-0.0040600152572933335,0.0024630721521769886
3,40.0,-1.2497732666015624,8.762778076171875,-3.1962592163085937,0.002264931090374321,-0.23915007689540624,0.08313629414079861,-1.4074917798046875,8.624657540078125,-3.2421665966210944,-0.10667857411160801,-0.21509938651042818,0.11001106048674418,-1.2497732666015624,8.762778076171875,-3.265691064453125,-0.042234303273450575,-0.23915007689540624,0.08313629414079861,-1.3135327402123695,8.775651557472493,-3.2120308708687144,-0.08405123687768148,-0.18451495436121856,0.06737092185315716,-1.2497732666015624,8.762778076171875,-3.1962592163085937,-0.07980551312554225,-0.10005666169830088,0.08313629414079861,0.9999789314744211,0.00277738929846246,-0.005115863424059617,0.002872395757253589
3,50.0,-1.1133037719726562,9.133879333496093,-3.3710359375,-0.042234303273450575,-0.17479938768065348,-0.0034640122558666085,-1.3486541782382813,8.726501898761718,-3.2679404647968755,-0.09378971994397653,-0.20703938674447325,0.08731604593822202,-1.1133037719726562,8.98304462890625,-3.1962592163085937,-0.042234303273450575,-0.17479938768065348,0.0752756509447936,-1.2916467813495465,8.812452041783228,-3.2052644153831276,-0.08583065126503055,-0.16319394171002574,0.05676564103482546,-1.1133037719726562,9.133879333496093,-3.3710359375,-0.042234303273450575,-0.17479938768065348,-0.0034640122558666085,0.9999723757444956,0.003561572762151091,-0.005870467225859854,0.0028461486115542124
3,60.0,-1.0606313354492187,9.179369165039063,-3.3159692993164063,-0.07980551312554225,-0.13536294046001823,0.0019984686091538127,-1.291049609680469,8.817075352017188,-3.2775462317007817,-0.09099287858028969,-0.19270409748758227,0.07025253047240838,-1.1133037719726562,8.98304462890625,-3.1962592163085937,-0.07980551312554225,-0.13536294046001823,0.0752756509447936,-1.271350275733655,8.844652822037819,-3.199098247724231,-0.08931883761089876,-0.1380178642561781,0.045897340650157575,-1.0606313354492187,9.179369165039063,-3.3159692993164063,-0.07980551312554225,-0.13536294046001823,0.0019984686091538127,0.9999666016110947,0.004157952477356559,-0.006435235519413762,0.002845142766902159
3,70.0,-1.1133037719726562,8.98304462890625,-3.0789433349609374,-0.10005666169830088,-0.10005666169830088,0.0752756509447936,-1.2555004421389064,8.850269207395002,-3.237825652352813,-0.09280563520389194,-0.174174610329726,0.07125715456688543,-1.1133037719726562,8.98304462890625,-3.1483751831054687,-0.09472741207389071,-0.10005666169830088,0.050094946469455566,-1.2531303834898788,8.869579338466723,-3.1951733902253436,-0.09384996691713478,-0.10978967059675329,0.03539479360844025,-1.1133037719726562,8.98304462890625,-3.0789433349609374,-0.10005666169830088,-0.10005666169830088,0.0752756509447936,0.9999608039312071,0.004649259457833953,-0.006817283345694888,0.0032093045246493366
3,80.0,-1.3335703247070312,8.913612780761719,-3.038241906738281,-0.09832465557036758,-0.07447626350113208,0.12017457903044926,-1.2711144186525316,8.862937922068346,-3.197908903229907,-0.09390943927718706,-0.15423494096400725,0.08104063945959819,-1.2401964599609374,8.913612780761719,-3.1483751831054687,-0.09472741207389071,-0.07447626350113208,0.050094946469455566,-1.2358991040968457,8.886924216875778,-3.195587901703368,-0.0985737003121475,-0.07933831989703188,0.02573914944208297,-1.3335703247070312,8.913612780761719,-3.2728736694335936,-0.09832465557036758,-0.07447626350113208,0.12017457903044926,0.999954722271129,0.005143940204046539,-0.0070477861663029735,0.003797630445445488
3,90.0,-1.2401964599609374,8.889670764160156,-3.1483751831054687,-0.09472741207389071,-0.0575558959436298,0.050094946469455566,-1.2649308269142128,8.868284490486708,-3.1880021592050194,-0.09407303383652779,-0.13489913195993175,0.07485150086156966,-1.2401964599609374,8.889670764160156,-3.1483751831054687,-0.09472741207389071,-0.0575558959436298,0.050094946469455566,-1.2176578843541384,8.897915292529555,-3.2019696973043192,-0.1026061676365644,-0.04745076289448641,0.01767184718313556,-1.2401964599609374,8.889670764160156,-3.1483751831054687,-0.09472741207389071,-0.0575558959436298,0.050094946469455566,0.9999499025773758,0.005660195771141261,-0.007201990801581381,0.004035572799883756
3,100.0,-1.3048399047851562,8.832209924316405,-3.153163586425781,-0.09166309353985487,-0.00013323124061025417,-0.021583460978861175,-1.2729126424884016,8.861069577252648,-3.181034444649172,-0.09359104577719321,-0.10794595181606746,0.055564508493483496,-1.2401964599609374,8.836998327636719,-3.153163586425781,-0.09166309353985487,-0.00013323124061025417,0.02971056665608668,-1.1964173453375426,8.904311287299775,-3.2149597788093414,-0.10504394251870491,-0.014885574992929234,0.012423863657847499,-1.3048399047851562,8.832209924316405,-3.153163586425781,-0.09166309353985487,-0.00013323124061025417,-0.021583460978861175,0.9999482422005148,0.00619207806768436,-0.007059245679783099,0.003916393715743166
3,110.0,-1.1276689819335937,8.836998327636719,-3.327940307617187,-0.0848683002687319,0.0025313935715948295,-0.023848392069235495,-1.24386391037744,8.856255327329462,-3.2104156172427754,-0.09184649667550096,-0.08585048273853502,0.039681928380939695,-1.1276689819335937,8.832209924316405,-3.191470812988281,-0.0848683002687319,0.0025313935715948295,0.02971056665608668,-1.170676922118305,8.907752360559584,-3.2344308766065573,-0.10491083520479214,0.017606524874048776,0.01150355359895886,-1.1276689819335937,8.836998327636719,-3.327940307617187,-0.0848683002687319,0.0025313935715948295,-0.023848392069235495,0.9999460147152741,0.006760631572103011,-0.00692274176153434,0.00378644454473566
3,120.0,-1.0678139404296874,8.777143286132812,-3.2824504760742186,-0.06208575812437844,0.02997702913730719,0.02971056665608668,-1.2086539163878895,8.840432919090134,-3.2248225890090643,-0.08589434896527647,-0.06268498036336657,0.037687656035969096,-1.1156979736328125,8.832209924316405,-3.2824504760742186,-0.06208575812437844,0.02997702913730719,0.02971056665608668,-1.1393103713634278,8.909341188648646,-3.260037955062588,-0.10108515258750651,0.04925806234495729,0.016351330774335062,-1.0678139404296874,8.777143286132812,-3.2824504760742186,-0.06208575812437844,0.02997702913730719,0.02971056665608668,0.9999424519421022,0.007441400835999118,-0.006656101912852572,0.003926151415880501
3,130.0,-1.1133037719726562,8.820238916015624,-3.191470812988281,-0.04809647786030176,0.06674885154573734,0.05369218996593243,-1.1895838875048428,8.836394118475232,-3.218152233804908,-0.07833477474428154,-0.03679821398154579,0.040888562821961766,-1.1133037719726562,8.836998327636719,-3.3207577026367185,-0.06208575812437844,0.06674885154573734,0.02971056665608668,-1.101143847417415,8.909337789406333,-3.2915931780660026,-0.0922049620827269,0.07921903757049559,0.028258563577700267,-1.1133037719726562,8.820238916015624,-3.191470812988281,-0.04809647786030176,0.06674885154573734,0.05369218996593243,0.9999384616140802,0.008189990552980718,-0.006201478871146496,0.0041879230435945495
3,140.0,-1.1156979736328125,8.920795385742187,-3.3207577026367185,-0.05822205214668107,0.08686676887788572,0.03943644722063523,-1.174806704730437,8.853274371928624,-3.23867332757127,-0.07431223022476144,-0.01206521740965949,0.04059813970169646,-1.1133037719726562,8.894459167480468,-3.3207577026367185,-0.06208575812437844,0.08686676887788572,0.02971056665608668,-1.0547624790585957,8.907063930493301,-3.3289326553597958,-0.0765796290645435,0.10649424694734806,0.04851498191001019,-1.1156979736328125,8.920795385742187,-3.3207577026367185,-0.05822205214668107,0.08686676887788572,0.03943644722063523,0.9999349643871815,0.00888808003279508,-0.005646920774317088,0.004379647828911143
3,150.0,-1.1133037719726562,9.030928662109375,-3.3638533325195312,-0.08566768771239343,0.1151117918872596,0.029444104174866172,-1.162506118178881,8.888805229964774,-3.2637093285609224,-0.07658332172228784,0.013370184449724331,0.038367332596330406,-1.1133037719726562,8.920795385742187,-3.3542765258789062,-0.0848683002687319,0.1151117918872596,0.029444104174866172,-0.9988157058262288,8.901243852000315,-3.3716042663835233,-0.05221603882465464,0.12992465581896442,0.07846402717366219,-1.1133037719726562,9.030928662109375,-3.3638533325195312,-0.08566768771239343,0.1151117918872596,0.029444104174866172,0.9999328654628445,0.009448765958094636,-0.004952717571568296,0.0045228285165619594
3,160.0,-1.0438719238281249,8.894459167480468,-3.3542765258789062,-0.0848683002687319,0.12230627888021334,0.01438897398590745,-1.1387792793087297,8.889936017467914,-3.2818227680245196,-0.07824031743157665,0.03515740333582214,0.03357166087424582,-1.0438719238281249,8.920795385742187,-3.3638533325195312,-0.0848683002687319,0.12230627888021334,0.029444104174866172,-0.9325269123914031,8.89067499211475,-3.41882697333751,-0.017043078201590872,0.1481800303231205,0.11929788107884225,-1.0438719238281249,8.894459167480468,-3.3542765258789062,-0.0848683002687319,0.12230627888021334,0.01438897398590745,0.9999303751439658,0.010014281411236265,-0.004227181355113068,0.004592381741023676
3,170.0,-0.8044517578125,8.94473740234375,-3.5146880371093747,-0.0912633998180241,0.1726676878308894,0.006661562030512709,-1.0719137750094838,8.900896294443081,-3.328395821841491,-0.08084493390886616,0.0626594602348356,0.028189641105499198,-0.833182177734375,8.94473740234375,-3.5146880371093747,-0.0848683002687319,0.1726676878308894,0.029444104174866172,-0.8559606547819694,8.874676553426196,-3.4695727964491057,0.030710543838570744,0.15975994885058287,0.1716488954672273,-0.8044517578125,8.94473740234375,-3.5146880371093747,-0.0912633998180241,0.1726676878308894,0.006661562030512709,0.9999282787124739,0.01054955691007215,-0.0032761098638995727,0.004627243701135087
3,180.0,-0.833182177734375,8.916006982421875,-3.7014357666015623,-0.07580857590723462,0.20943951023931956,0.041434915829789046,-1.024167455554462,8.90391843203884,-3.4030038107935052,-0.07983766230853986,0.0920154702357324,0.03083869605035717,-0.8044517578125,8.916006982421875,-3.69664736328125,-0.07580857590723462,0.20943951023931956,0.041434915829789046,-0.7698386338707477,8.853133024383617,-3.5227713695555587,0.09207470313231458,0.1630783251365539,0.23508704842803801,-0.833182177734375,8.916006982421875,-3.7014357666015623,-0.07580857590723462,0.20943951023931956,0.041434915829789046,0.9999237216999337,0.011160284815181524,-0.0021387389594392688,0.0048398987862037085
3,190.0,-0.5722141967773438,8.980650427246093,-3.778050219726562,-0.03903675349880447,0.2679280248672211,0.11124808590956223,-0.9337768037990384,8.919264831080291,-3.478013092580117,-0.07167748054659279,0.12719798116203013,0.04692057402219818,-0.5722141967773438,8.916006982421875,-3.69664736328125,-0.03903675349880447,0.2679280248672211,0.11124808590956223,-0.6751350640447378,8.826539802714032,-3.5779309674110378,0.16687479088823812,0.1567100458193916,0.30765340194315666,-0.5722141967773438,8.980650427246093,-3.778050219726562,-0.03903675349880447,0.2679280248672211,0.11124808590956223,0.9999136405736772,0.011954925413991603,-0.0007403277710909273,0.005407685996088118
3,200.0,-0.4381389038085937,8.789114294433594,-3.69664736328125,0.0479632466196915,0.3025681474258872,0.25194027599399066,-0.8346492238009495,8.893234723750952,-3.521739946720344,-0.04774933511333593,0.16227201441480155,0.08792451441655669,-0.4381389038085937,8.789114294433594,-3.7014357666015623,0.0479632466196915,0.2679280248672211,0.25194027599399066,-0.5726600198193167,8.796191883392916,-3.6358493858485965,0.25330507607833697,0.13980363257798784,0.3855980303443987,-0.4381389038085937,8.789114294433594,-3.69664736328125,0.0479632466196915,0.3025681474258872,0.25194027599399066,0.9998904201539552,0.013183735542734608,0.0008126220408236481,0.006684044202792328
3,210.0,-0.37828386230468747,8.564059338378906,-3.6727053466796873,0.20371056689307862,0.2684609498296622,0.4596477801053769,-0.7433761515016971,8.827399646676543,-3.551933026712213,0.002542645287946982,0.18350980149777368,0.16226916755432075,-0.4381389038085937,8.590395556640624,-3.69664736328125,0.20371056689307862,0.2679280248672211,0.4596477801053769,-0.46257035441969263,8.764024842592466,-3.6986948172933087,0.3476755425584686,0.11256016775038535,0.46349929557796826,-0.37828386230468747,8.564059338378906,-3.6727053466796873,0.20371056689307862,0.2684609498296622,0.4596477801053769,0.9998417001307114,0.015193215437372697,0.0021821405982895446,0.008998841414948063
3,220.0,-0.3399766357421875,8.590395556640624,-3.7708676147460936,0.41927871420046986,0.22715926524048335,0.6359127114327432,-0.6626962483497952,8.77999882866936,-3.595719944318989,0.08588985907045156,0.19223969424631565,0.25699787633000526,-0.4381389038085937,8.564059338378906,-3.6727053466796873,0.41927871420046986,0.22715926524048335,0.6359127114327432,-0.3440810537023713,8.731782702057592,-3.769416667440904,0.44451863431116695,0.07659159367274793,0.5348685488051358,-0.3399766357421875,8.590395556640624,-3.7708676147460936,0.41927871420046986,0.22715926524048335,0.25194027599399066,0.9997529297307166,0.018283908949539195,0.0033379572179278003,0.012191645089366158
3,230.0,-0.507570751953125,8.487444885253906,-3.4715924072265625,0.6116646256416769,0.10591883628515207,0.7884624819314842,-0.6316711490704612,8.72148803998627,-3.570894436900504,0.19104481238469662,0.17497552265408295,0.3632907974503011,-0.37828386230468747,8.487444885253906,-3.6727053466796873,0.6116646256416769,0.10591883628515207,0.7884624819314842,-0.21585872236200263,8.700043952172958,-3.8509101352944426,0.5371601188588868,0.035001813825073676,0.5931198366827599,-0.507570751953125,8.487444885253906,-3.7708676147460936,0.37864318581434236,0.10591883628515207,0.25194027599399066,0.9996125162656229,0.02234415700865536,0.003905889980210693,0.016133815300321118
3,240.0,-0.5027823486328125,8.348581188964843,-3.6727053466796873,0.7631485462155359,-0.0799387443661525,0.8529464023868472,-0.6058933889829314,8.646906669781984,-3.591256618856341,0.3054655591508645,0.12399266925003587,0.4612219184376103,-0.3399766357421875,8.348581188964843,-3.7708676147460936,0.7631485462155359,-0.0799387443661525,0.8003200623457968,-0.0772597142614194,8.667609539145523,-3.9449226331752536,0.6186173542573454,-0.00790873104358076,0.6325852960841466,-0.5027823486328125,8.348581188964843,-3.6727053466796873,0.37864318581434236,-0.0799387443661525,0.25194027599399066,0.9994166910713437,0.02717650128842733,0.003550471331241462,0.020374237140378157
3,250.0,-0.08379705810546874,8.259995727539062,-3.9743747558593747,0.9057059736685079,-0.18039509978628415,0.9336845341966612,-0.501474122807439,8.5695244813334,-3.667880246256948,0.42551364205439324,0.06311511544277186,0.5557144415894205,-0.08379705810546874,8.348581188964843,-3.9743747558593747,0.9057059736685079,-0.18039509978628415,0.8003200623457968,0.07015357586051413,8.63095947497625,-4.0510232209399035,0.6825391232500074,-0.04735975595671,0.6493201762672106,-0.08379705810546874,8.259995727539062,-3.9743747558593747,0.37864318581434236,-0.18039509978628415,0.25194027599399066,0.9991478654616491,0.03273390060183549,0.0026472651469865325,0.025000533635522387
3,260.0,0.24660277099609373,8.259995727539062,-4.043806604003906,0.9677917317928864,-0.21769984715715532,0.8003200623457968,-0.35185874404673245,8.507618730574531,-3.7430655178063397,0.5339692600020919,0.006952122922786422,0.6046355657406958,0.24660277099609373,8.348581188964843,-4.043806604003906,0.9583323137095583,-0.20371056689307862,0.8003200623457968,0.22210828803178553,8.58360766859565,-4.166529085930508,0.7240067328984637,-0.07899184037629473,0.6415827259903844,0.24660277099609373,8.259995727539062,-4.043806604003906,0.37864318581434236,-0.21769984715715532,0.25194027599399066,0.9988339522770837,0.03860271636513202,0.0015473730109775998,0.02895119521778785
3,270.0,0.7996633544921875,8.628702783203124,-4.460397692871093,1.0332082709325212,-0.28178407389068755,0.7503583471169515,-0.12155432433894844,8.53183554110025,-3.8865319528192908,0.6338170621881778,-0.050795116439908375,0.6337801220159469,0.6200982299804687,8.628702783203124,-4.460397692871093,0.9583323137095583,-0.21210413505152464,0.7503583471169515,0.37282586847157495,8.515986887844173,-4.287344086793372,0.7401528623775692,-0.09954838171012727,0.6098704621360109,0.7996633544921875,8.628702783203124,-4.460397692871093,0.37864318581434236,-0.28178407389068755,0.25194027599399066,0.9984625677204583,0.04480253550784186,8.539907342128824e-05,0.032637805994519264
3,280.0,0.6200982299804687,9.854534033203125,-4.709394665527343,0.9583323137095583,-0.20371056689307862,0.7067917314373984,0.026776186524934992,8.796375239520826,-4.051104495360901,0.6987201124924539,-0.08137820653054242,0.6483824439002372,0.7996633544921875,8.628702783203124,-4.525041137695312,0.9583323137095583,-0.21210413505152464,0.7067917314373984,0.5171041830255536,8.417361613810145,-4.409169006905689,0.7305643534189967,-0.10719615116585719,0.5565828661593919,0.6200982299804687,8.348581188964843,-4.709394665527343,0.37864318581434236,-0.20371056689307862,0.25194027599399066,0.9980644923686297,0.05061379442814299,-0.0009622564194495685,0.03611906628248658
3,290.0,0.9552864624023437,9.488221179199218,-4.525041137695312,0.7783369076451049,-0.21210413505152464,0.5302603376288116,0.21247824170041676,8.934744427456504,-4.1458918238277835,0.7146434715229841,-0.10752339223473888,0.6247580226459521,0.9552864624023437,8.628702783203124,-4.534617944335937,0.7783369076451049,-0.20371056689307862,0.5302603376288116,0.651767752023025,8.280751321634266,-4.528754266347236,0.6973129428430245,-0.10153538208625175,0.4856345597682981,0.9552864624023437,8.259995727539062,-4.525041137695312,0.37864318581434236,-0.21210413505152464,0.5302603376288116,0.9977042916422669,0.05552477419196071,-0.0020761380465441725,0.0387147974338748
3,300.0,1.2042834350585936,8.585607153320312,-4.534617944335937,0.6109984694386257,-0.1398928026407669,0.39756202198099844,0.41083928037205214,8.864916972629267,-4.223637047929414,0.6939144711061125,-0.11399727431594449,0.5793188225129614,0.9552864624023437,8.585607153320312,-4.709394665527343,0.6109984694386257,-0.1398928026407669,0.39756202198099844,0.7761532256590914,8.108021872749033,-4.644263886659509,0.6444043637268666,-0.0833905984449821,0.4020703277733453,1.2042834350585936,8.585607153320312,-4.534617944335937,0.6109984694386257,-0.1398928026407669,0.39756202198099844,0.9973905482084645,0.05958328431631264,-0.0028626417348080815,0.040666102060541734
3,310.0,1.0103531005859374,7.788338000488281,-4.742913488769531,0.4139494645760597,-0.0014655436467127959,0.20477641681796066,0.5307420444148292,8.64960117820107,-4.327492336097437,0.6379214698001019,-0.09149092818209816,0.5044103413739612,0.9552864624023437,7.788338000488281,-4.742913488769531,0.4139494645760597,-0.0029310872934255917,0.20477641681796066,0.892422998361661,7.9104120666264635,-4.754429242359283,0.5767214994530468,-0.05447029256036133,0.3114914538645508,1.0103531005859374,7.788338000488281,-4.742913488769531,0.4139494645760597,-0.0014655436467127959,0.20477641681796066,0.9971610933849279,0.06263314234861977,-0.002931819812892454,0.041692298467429695
3,320.0,0.7613561279296874,7.268796240234375,-4.7764323120117185,0.35426186878266586,0.10045635542013165,0.042234303273450575,0.5768648611178009,8.373440190607731,-4.417280331280294,0.5811895495966147,-0.053101471461652186,0.41197513375385914,0.7613561279296874,7.268796240234375,-4.7764323120117185,0.37864318581434236,-0.0029310872934255917,0.042234303273450575,1.005328106396818,7.704326369734927,-4.857667189128756,0.498867662078585,-0.01682812118540959,0.2193090048783203,0.7613561279296874,7.268796240234375,-4.7764323120117185,0.35426186878266586,0.10045635542013165,0.042234303273450575,0.9969766558341768,0.06536719580132488,-0.0024313304305388556,0.04193764498765087
3,330.0,0.5410895751953124,7.194575988769531,-5.279214660644531,0.37864318581434236,-0.0029310872934255917,-0.04263399699528134,0.5697098039333033,8.137667350240092,-4.589667197153141,0.5406802768401603,-0.04306739462800687,0.32105330760403106,0.7613561279296874,7.194575988769531,-5.279214660644531,0.3733139361899322,-0.0029310872934255917,-0.010258805526989571,1.1203548892778852,7.506377822711589,-4.952074154779961,0.4144119753487107,0.027746504399595903,0.12999349740869898,0.5410895751953124,7.194575988769531,-5.279214660644531,0.37864318581434236,-0.0029310872934255917,-0.04263399699528134,0.9967927486013187,0.06824585163599552,-0.00238566455683972,0.04172563570430085
3,340.0,0.46208092041015625,6.845022546386718,-5.365405920410156,0.3733139361899322,-0.1023215927886752,-0.02198315470069194,0.5481840272286739,7.879138389469418,-4.744814941804544,0.5072070087101147,-0.05491823426014054,0.2524460151430865,0.7613561279296874,6.904877587890625,-5.279214660644531,0.36691883664064,-0.0029310872934255917,-0.02198315470069194,1.2406867105407522,7.330437960058807,-5.036372380658313,0.3258866354862707,0.07781429502280764,0.04659771840441554,0.46208092041015625,6.845022546386718,-5.365405920410156,0.3733139361899322,-0.1023215927886752,-0.02198315470069194,0.9965967966760508,0.07111760938268784,-0.002836327526999304,0.041582036228226725
3,350.0,1.3311761230468748,6.698976245117187,-5.331887097167969,0.36691883664064,-0.0767411945915064,-0.010258805526989571,0.7047824463923141,7.643105960598971,-4.86222937287723,0.4791493742962198,-0.05928282632641371,0.1999050510090713,1.3311761230468748,6.904877587890625,-5.279214660644531,0.36691883664064,-0.0029310872934255917,-0.04263399699528134,1.364798848820342,7.1864992598989055,-5.111274633408941,0.2354244892254312,0.13156419536564365,-0.029150959809851718,1.3311761230468748,6.698976245117187,-5.331887097167969,0.36691883664064,-0.0767411945915064,-0.010258805526989571,0.9963928026692409,0.07394108370903793,-0.003280765414039372,0.04151307633946507
3,360.0,1.8842367065429686,6.904877587890625,-5.276820458984375,0.26619601873928783,0.0706125575234347,-0.07873966320066021,0.9406732984224451,7.495460286057302,-4.945147590098658,0.4365587031848334,-0.03330374955644403,0.144176108167125,1.695094775390625,6.904877587890625,-5.276820458984375,0.26619601873928783,0.0706125575234347,-0.07873966320066021,1.48678062628709,7.080324894963509,-5.180124531439366,0.1455633262483551,0.18590470146534435,-0.09627148231562872,1.8842367065429686,6.904877587890625,-5.276820458984375,0.26619601873928783,0.0706125575234347,-0.07873966320066021,0.9962363511659281,0.07622119808982611,-0.003049610279368821,0.041160192595434734
3,370.0,1.695094775390625,7.194575988769531,-4.8506525634765625,0.09312863718656766,0.29350842306438996,-0.18878866794473015,1.091557593816081,7.4352834265997485,-4.926248584774239,0.3678726899851803,0.03205868496772277,0.07758315294475397,1.7669208251953124,7.096413720703125,-4.8506525634765625,0.09312863718656766,0.29350842306438996,-0.18878866794473015,1.5993307395938139,7.014091150544756,-5.248126034502795,0.059758947233020894,0.23623090450437595,-0.15397050411261082,1.695094775390625,7.194575988769531,-4.8506525634765625,0.09312863718656766,0.29350842306438996,-0.18878866794473015,0.996166698750052,0.07760004153981036,-0.0016716196277142038,0.040340395911084154
3,380.0,1.9752163696289062,7.096413720703125,-4.7117888671875,-0.08353598786262936,0.4469908122474027,-0.2705926496794262,1.2682893489786462,7.367509485420424,-4.883356641256891,0.2775909544156184,0.11504511042365877,0.007947992419917935,1.7669208251953124,7.096413720703125,-4.8123453369140625,-0.08353598786262936,0.4469908122474027,-0.2705926496794262,1.6964904240558611,6.988301574108576,-5.320227187402235,-0.017673982604447087,0.2771159654818608,-0.2015151998222823,1.9752163696289062,7.096413720703125,-4.7117888671875,-0.08353598786262936,0.4469908122474027,-0.2705926496794262,0.9961783922039966,0.07806139780869358,0.0004324790975406409,0.03917706012251641
3,390.0,1.7669208251953124,7.180210778808593,-4.7931917236328125,-0.24074885178272928,0.5140061262743606,-0.3462679943460506,1.3680156442219795,7.3300497440980585,-4.865323657732075,0.17392299317594886,0.19483731359379913,-0.06289520493327577,1.7669208251953124,7.096413720703125,-4.8123453369140625,-0.24074885178272928,0.5140061262743606,-0.3041669223132103,1.7743387233545258,7.0037759183437664,-5.3983451585850055,-0.08217397813553863,0.30348809557158957,-0.23848989147379668,1.7669208251953124,7.180210778808593,-4.7931917236328125,-0.24074885178272928,0.5140061262743606,-0.3462679943460506,0.9962583526553893,0.07773176686871879,0.002898462935744859,0.03766518414195415
3,400.0,1.7549498168945312,6.746860278320312,-4.8123453369140625,-0.42181010777206474,0.6044701386487232,-0.3224196022768151,1.4454024787564899,7.21341185094251,-4.854727993568472,0.05477637298634615,0.27676387860478396,-0.11480008440198364,1.9488801513671874,7.003039855957031,-4.8123453369140625,-0.42181010777206474,0.5225329256734169,-0.31495865280264085,1.8304320715147848,7.0623316313042,-5.47921724243459,-0.12985120619385238,0.3117026743492274,-0.2651236792104277,1.7549498168945312,6.746860278320312,-4.8123453369140625,-0.42181010777206474,0.6044701386487232,-0.3224196022768151,0.9963927779493926,0.07648157790800532,0.0057636782020106525,0.03631501486406904
3,410.0,2.1356278808593747,7.003039855957031,-5.293579870605469,-0.527329250335386,0.6105987757167949,-0.3041669223132103,1.583447559177067,7.171337451945415,-4.942498368975873,-0.061644751678000285,0.3435308580271862,-0.15267345198422896,1.7669208251953124,6.988674645996094,-5.293579870605469,-0.42181010777206474,0.5225329256734169,-0.3224196022768151,1.8630422888594143,7.165941441592384,-5.553671882554549,-0.15852634530248474,0.3003057920000562,-0.2824063103723918,2.1356278808593747,7.003039855957031,-5.293579870605469,-0.527329250335386,0.6105987757167949,-0.3041669223132103,0.9965522960469508,0.07469774358529721,0.00860059322293697,0.035068477911494776
3,420.0,1.9488801513671874,6.988674645996094,-5.877765075683594,-0.5085436454093402,0.5225329256734169,-0.31495865280264085,1.656534077615091,7.134804890755551,-5.129551710317417,-0.15102453042426828,0.3793312715564323,-0.18513049214791136,1.7549498168945312,6.988674645996094,-5.877765075683594,-0.42181010777206474,0.5225329256734169,-0.3224196022768151,1.871048041193725,7.315283509928401,-5.607628745072187,-0.1687052275750867,0.2705253987717371,-0.29192789818284126,1.9488801513671874,6.988674645996094,-5.877765075683594,-0.5085436454093402,0.5225329256734169,-0.31495865280264085,0.9966980432150301,0.07302803858305949,0.011033565480163527,0.033736873963602323
3,430.0,1.1731588134765625,6.959944226074218,-6.327874987792969,-0.31589127148691265,0.37318070494932193,-0.3474670755115429,1.5598590247873854,7.099832757819285,-5.369216365812528,-0.18399787863679717,0.3781011582350102,-0.21759780882063767,1.3958195678710936,6.988674645996094,-6.062118603515625,-0.31589127148691265,0.37318070494932193,-0.31495865280264085,1.8539300499960012,7.508570492420784,-5.625088252458832,-0.16407184631583557,0.22635718289668663,-0.295663335950357,1.1731588134765625,6.959944226074218,-6.327874987792969,-0.31589127148691265,0.37318070494932193,-0.3474670755115429,0.9967767245655031,0.07235621388280007,0.012865102532181025,0.03217497185468867
3,440.0,1.1707646118164061,7.137115148925781,-6.411672045898437,-0.05369218996593243,0.14642113343066934,-0.3598575808882965,1.4820401421931897,7.107289236040584,-5.57770750182971,-0.15793674090262425,0.331765153274142,-0.24604976323416944,1.3958195678710936,6.988674645996094,-6.062118603515625,-0.05369218996593243,0.14642113343066934,-0.31495865280264085,1.8099856884269674,7.740412659934169,-5.592281099920466,-0.1510262966423158,0.17406581796458495,-0.2959359287555182,1.1707646118164061,7.137115148925781,-6.411672045898437,-0.05369218996593243,0.14642113343066934,-0.3598575808882965,0.9967718029346393,0.07302701444844985,0.013619458266125513,0.0304555149638255
3,450.0,1.3958195678710936,6.754042883300781,-6.062118603515625,0.12883460967011579,-0.095926493239383,-0.2331546710679448,1.4647960273287706,7.036639965492624,-5.6745897221668935,-0.10058247078807625,0.24622682397143703,-0.24347074480092454,1.3958195678710936,7.137115148925781,-6.062118603515625,0.06301837680865022,-0.095926493239383,-0.2331546710679448,1.7334878598816004,8.00012144238327,-5.501023445455161,-0.13721698464998708,0.12109379565948886,-0.2954579384704735,1.3958195678710936,6.754042883300781,-6.062118603515625,0.12883460967011579,-0.095926493239383,-0.2331546710679448,0.9966939768775458,0.0746485140608345,0.01311237217857027,0.02927083019632883
3,460.0,2.5139117431640625,7.247248425292969,-5.023035083007812,0.16001071997291527,-0.37051608013711684,-0.1692036755750228,1.6746191704958289,7.078761657452693,-5.544278794335078,-0.04846383263587795,0.12287824314972626,-0.2286173309557442,2.29843359375,7.247248425292969,-6.062118603515625,0.06301837680865022,-0.20864012279565802,-0.2331546710679448,1.6143474334834258,8.269364090692191,-5.349371270059987,-0.12966883308964341,0.07448108629709678,-0.2970905643328481,2.5139117431640625,7.247248425292969,-5.023035083007812,0.16001071997291527,-0.37051608013711684,-0.1692036755750228,0.9966102228035301,0.07644372294893322,0.011091749032845087,0.02830890546449247
3,470.0,2.858676782226562,10.043675964355469,-5.928043310546875,0.06301837680865022,-0.2976385915233078,-0.12310566632387486,1.9114306928419758,7.671744518833249,-5.621031697577438,-0.026167390746972323,0.03877487621511946,-0.20751499802937035,2.29843359375,10.043675964355469,-5.928043310546875,0.09885758053280859,-0.20864012279565802,-0.19958039843416076,1.4423185540686754,8.521624143634074,-5.139678560946119,-0.13339998566955732,0.039139000439504384,-0.30321801143332056,2.858676782226562,7.429207751464843,-5.928043310546875,0.06301837680865022,-0.2976385915233078,-0.12310566632387486,0.9965453004201248,0.07775765735002724,0.009447382650590062,0.02760358482248823
3,480.0,2.29843359375,11.106701501464842,-6.737283471679687,-0.04916232778518379,-0.20864012279565802,-0.25620367569351876,1.9888312730235806,8.358735915359567,-5.844282052397888,-0.03076637815461462,-0.010708123587036038,-0.21725273356220004,2.29843359375,10.043675964355469,-5.147533569335937,0.06301837680865022,-0.20864012279565802,-0.19958039843416076,1.2135475636966457,8.728337601008873,-4.878149513312461,-0.15104535943640485,0.016745433530896213,-0.3151345609184206,2.29843359375,8.111555224609374,-6.737283471679687,-0.04916232778518379,-0.20864012279565802,-0.25620367569351876,0.9965325741255449,0.07850574726562885,0.008348800754641353,0.02626735386254569
3,490.0,1.7094599853515624,10.366893188476562,-5.147533569335937,0.09885758053280859,0.0009326186842717792,-0.19958039843416076,1.932957015489177,8.760367369982966,-5.704932355785497,-0.004841586417129978,-0.008379975132774475,-0.2137182665365922,1.7094599853515624,10.043675964355469,-5.147533569335937,-0.0127901990985844,-0.1578790201231512,-0.25620367569351876,0.9347987602369762,8.870258883998321,-4.578534423523698,-0.18316772547019006,0.00587955957542978,-0.3328611095463144,1.7094599853515624,8.298302954101562,-5.147533569335937,0.09885758053280859,0.0009326186842717792,-0.19958039843416076,0.9964417672225615,0.0799698953290078,0.008324207372660515,0.0252849351801297
3,500.0,-0.08858546142578125,8.611943371582031,-3.009511486816406,-0.0127901990985844,0.025180704475338038,-0.3607901995725683,1.5286485201061857,8.730682570302779,-5.16584818199168,-0.006431308953420863,-0.0016678392111519717,-0.24313265314378743,-0.08858546142578125,9.593566052246093,-3.2728736694335936,-0.04916232778518379,-0.1578790201231512,-0.3378744261876046,0.6225663844198805,8.943868900878954,-4.264025066738327,-0.2284228672163063,0.003143219214726504,-0.355330145864156,-0.08858546142578125,8.611943371582031,-3.009511486816406,-0.0127901990985844,0.025180704475338038,-0.3607901995725683,0.9964098996564238,0.08087346129085231,0.008630184910798082,0.023501383659647688
3,510.0,-0.373495458984375,8.307879760742187,-2.138022082519531,-0.16640581952220745,-0.1578790201231512,-0.3378744261876046,1.1482197242880736,8.64612200839066,-4.560282962097251,-0.03842621106717818,-0.03291007539355182,-0.2620810077525509,-0.373495458984375,9.222464794921875,-3.2728736694335936,-0.16640581952220745,-0.03464012255866609,-0.3607901995725683,0.2976792738924728,8.956999981660807,-3.9608325654497554,-0.28340524906042647,0.0042937321388597585,-0.3806960417420545,-0.373495458984375,8.307879760742187,-2.138022082519531,-0.16640581952220745,-0.1578790201231512,-0.3378744261876046,0.9964415455898499,0.08103185700609934,0.008029295149362268,0.021762692665627817
3,520.0,-0.718260498046875,9.593566052246093,-3.2728736694335936,-0.4294042884868492,-0.22023124072875014,-0.5146722824774118,0.774923679821084,8.835610817161747,-4.302801103564519,-0.11662182655111239,-0.07037430846059149,-0.3125992626975231,-0.373495458984375,8.611943371582031,-3.2728736694335936,-0.4294042884868492,-0.03464012255866609,-0.5036140895067608,-0.02121429850016414,8.920284885144696,-3.6881838775854052,-0.3428810908599653,0.004467726261194567,-0.40672135558039335,-0.718260498046875,9.593566052246093,-3.2728736694335936,-0.4294042884868492,-0.22023124072875014,-0.5146722824774118,0.9965952991237044,0.07987711138378019,0.007189112192539277,0.019125206074726283
3,530.0,-0.45968671875,9.222464794921875,-4.204218115234375,-0.6696202153071374,-0.03464012255866609,-0.6521669227871941,0.5280016001068673,8.912981612713773,-4.283084505898491,-0.2272215043023174,-0.06322747128020642,-0.3805127947154573,-0.45968671875,8.413224633789062,-3.2728736694335936,-0.6056692198142155,-0.03464012255866609,-0.5146722824774118,-0.32114458749517344,8.843944724335405,-3.4550498168263144,-0.40084152926613104,-0.0023440586380364713,-0.4313475229796881,-0.45968671875,9.222464794921875,-4.204218115234375,-0.6696202153071374,-0.03464012255866609,-0.6521669227871941,0.9968388475679656,0.0775043006300921,0.0072820404669283485,0.015886070938038576
3,540.0,0.239420166015625,8.298302954101562,-4.077325427246094,-0.6056692198142155,0.27645482426627743,-0.5036140895067608,0.47028531328861883,8.790045880991332,-4.241932690168012,-0.30291104740469704,0.00470898782909035,-0.40513305367371805,-0.718260498046875,8.413224633789062,-3.2728736694335936,-0.6696202153071374,0.27645482426627743,-0.5146722824774118,-0.5937351162277373,8.739575035025776,-3.265851771833503,-0.45194748157997616,-0.023286302696977606,-0.4534066524851172,0.239420166015625,8.298302954101562,-4.077325427246094,-0.6056692198142155,0.27645482426627743,-0.5036140895067608,0.9970205114581077,0.0754326402360872,0.008800326749494455,0.013511875070786336
3,550.0,-0.8044517578125,8.413224633789062,-2.858676782226562,-0.6708192964726297,0.6044701386487232,-0.5227993881546373,0.2153378990683951,8.714681631550878,-3.9652815085797224,-0.3764926972182836,0.12466121799301694,-0.42866632056990195,-0.8044517578125,8.298302954101562,-2.858676782226562,-0.6696202153071374,0.27645482426627743,-0.5036140895067608,-0.8311954315388542,8.620245786540961,-3.127520741069717,-0.49251801217306346,-0.06511742409244478,-0.4729671287166156,-0.8044517578125,8.413224633789062,-2.858676782226562,-0.6708192964726297,0.6044701386487232,-0.5227993881546373,0.9971959429276169,0.07300612969340733,0.012072562447060318,0.011162870233599586
3,560.0,-1.4245499877929686,7.429207751464843,-2.0566192260742184,-0.6898713638798961,0.5719617159398211,-0.38130781062654745,-0.11263967830387767,8.457586855533672,-3.583549052078622,-0.4391684305506061,0.2141213175823778,-0.4191946185812311,-1.4245499877929686,8.298302954101562,-2.205059729003906,-0.6056692198142155,0.27645482426627743,-0.42900459476501845,-1.0235617031399236,8.497543908261493,-3.05037397323676,-0.5207388488107249,-0.13155861967830262,-0.4909671034466862,-1.4245499877929686,7.429207751464843,-2.0566192260742184,-0.6898713638798961,0.5719617159398211,-0.38130781062654745,0.9973517516325247,0.07047982017175285,0.015220422997993767,0.009508795289326669
3,570.0,-1.9201497314453124,8.111555224609374,-2.205059729003906,-0.5847519150384055,0.23701837704564216,-0.3543951000232761,-0.47414168893216463,8.388380529348812,-3.307851187463679,-0.468285127448166,0.21870072947503066,-0.40623471486964013,-1.8291700683593748,8.413224633789062,-2.205059729003906,-0.5847519150384055,0.23701837704564216,-0.42900459476501845,-1.1602466737870445,8.378544939019669,-3.0431988157710648,-0.5364811274239977,-0.22100962876267033,-0.5084252619258661,-1.9201497314453124,8.111555224609374,-2.205059729003906,-0.5847519150384055,0.23701837704564216,-0.3543951000232761,0.9974806996959372,0.06848570252658527,0.016735369505420934,0.007867000130934686
3,580.0,-1.8291700683593748,8.66940421142578,-2.1739351074218747,-0.5534425734949958,-0.14282388993419248,-0.42900459476501845,-0.7451473648176067,8.444585265764205,-3.081067971455319,-0.485316616657532,0.14639580559318605,-0.41078869084871583,-1.9201497314453124,8.508992700195313,-2.205059729003906,-0.5534425734949958,-0.14282388993419248,-0.42900459476501845,-1.2338729057656275,8.265074258929042,-3.1081667645140745,-0.5409295100624129,-0.32607156228051254,-0.5256547369606028,-1.8291700683593748,8.66940421142578,-2.1739351074218747,-0.5534425734949958,-0.14282388993419248,-0.42900459476501845,0.9976250865270628,0.06666130942701731,0.016360568476699477,0.005726111810368231
3,590.0,-2.3965958618164063,8.798691101074219,-2.214636535644531,-0.5358560497344422,-0.4011592654774753,-0.5310597250724731,-1.0754370642173665,8.51540643282621,-2.9077816842931616,-0.4954245032729141,0.03688479137905376,-0.4348428976934673,-2.2290017456054687,8.508992700195313,-2.214636535644531,-0.5427840742461755,-0.4011592654774753,-0.5310597250724731,-1.2431489798337019,8.156551574426654,-3.238618123310877,-0.5360202462532211,-0.4349413838804882,-0.5418923136757762,-2.3965958618164063,8.798691101074219,-2.214636535644531,-0.5358560497344422,-0.4011592654774753,-0.5310597250724731,0.9977771117685903,0.0649098797277821,0.014786203708132047,0.0029851171428817167
3,600.0,-3.0526071166992184,8.508992700195313,-2.863465185546875,-0.5427840742461755,-0.7538223593728182,-0.6176600314691384,-1.470871074713737,8.51412368630003,-2.8989183845439044,-0.5048964174675664,-0.12125663877132065,-0.47140632444860153,-2.2290017456054687,8.508992700195313,-2.863465185546875,-0.5358560497344422,-0.7538223593728182,-0.6176600314691384,-1.195268499419942,8.054481271350783,-3.418703774838519,-0.5239761920868868,-0.5335820775453327,-0.5555649352360241,-3.0526071166992184,8.508992700195313,-2.863465185546875,-0.5427840742461755,-0.7538223593728182,-0.6176600314691384,0.9979403261424384,0.06309968162305254,0.01155164297303366,-0.0003085164769547393
3,610.0,-2.2290017456054687,8.245630517578125,-4.134786267089844,-0.5148055137180221,-1.5200352241223898,-0.7790030638481561,-1.6224972088920835,8.46042505255565,-3.1460919610530924,-0.5068782367176576,-0.4010123558415345,-0.5329256723285125,-2.2290017456054687,8.245630517578125,-4.134786267089844,-0.5148055137180221,-0.7538223593728182,-0.6176600314691384,-1.109136758542171,7.96496272790175,-3.6247526190649353,-0.5071336274851831,-0.6082077620915657,-0.5650093977824453,-2.2290017456054687,8.245630517578125,-4.134786267089844,-0.5148055137180221,-1.5200352241223898,-0.7790030638481561,0.9980899641794886,0.06143968528216938,0.004468696292363256,-0.004649648380476555
3,620.0,0.17477672119140625,7.345410693359375,-5.614402893066406,-0.48616079698681747,-2.364588058350791,-0.6253874434245331,-1.2630424228753856,8.237422180716395,-3.639754147455755,-0.5027347487714896,-0.7937274963433859,-0.5514180265477167,-0.49320554199218747,7.345410693359375,-4.553771557617187,-0.48616079698681747,-0.7538223593728182,-0.6176600314691384,-1.0160194050818983,7.898040961995129,-3.8302382895990257,-0.4879255077578157,-0.6490385620763613,-0.5692828251571835,0.17477672119140625,7.345410693359375,-5.614402893066406,-0.48616079698681747,-2.364588058350791,-0.6253874434245331,0.9981408529523699,0.05993218639889794,-0.007146697892054458,-0.00847911612155998
3,630.0,5.173869787597656,7.192181787109375,-6.552929943847656,-0.2107718226454221,-0.5008162334539454,-0.47896630999386375,0.024340019219222908,8.028374101994991,-4.222389306734136,-0.44434216354627615,-0.735145243765498,-0.5369276832369461,-0.49320554199218747,7.192181787109375,-4.553771557617187,-0.3234854522016971,-0.5008162334539454,-0.47896630999386375,-0.9499603825971432,7.864554712339243,-4.014606527437344,-0.46869424448466085,-0.6544921380206169,-0.5684847015161607,-1.4245499877929686,7.192181787109375,-6.552929943847656,-0.2107718226454221,-0.5008162334539454,-0.47896630999386375,0.9981052244221915,0.059699171610587486,-0.010049667032151361,-0.010998821876870003
3,640.0,-0.49320554199218747,7.132326745605468,-4.553771557617187,-0.3234854522016971,0.4625788673988025,-0.3853047478448551,-0.07916909302305916,7.8491646307170875,-4.288665756910746,-0.4201708212773604,-0.49560042153263795,-0.5066030961585279,-0.49320554199218747,7.192181787109375,-4.553771557617187,-0.2107718226454221,-0.5008162334539454,-0.3853047478448551,-0.9288064312549571,7.872090644196783,-4.171603880446688,-0.4510772101685096,-0.6308225225676807,-0.5631668198431952,-0.49320554199218747,7.132326745605468,-4.553771557617187,-0.3234854522016971,0.4625788673988025,-0.3853047478448551,0.9981399383241748,0.05912099382045495,-0.007565468517746904,-0.012811529885276233
3,650.0,-2.7940333374023436,7.144297753906249,-3.6918589599609373,-0.13816079651283358,-0.03410719759622507,-0.1468208271525001,-0.622141941898916,7.708191255354921,-4.169304397520784,-0.36376881632445507,-0.4033017767453554,-0.4346466423573224,-1.7908628417968748,7.192181787109375,-3.6918589599609373,-0.13816079651283358,-0.5008162334539454,-0.3853047478448551,-0.945056706658929,7.922130704385631,-4.309945927186924,-0.4352302060488812,-0.5854963724788166,-0.5531154802331651,-2.7940333374023436,7.144297753906249,-3.6918589599609373,-0.13816079651283358,-0.03410719759622507,-0.1468208271525001,0.9981163517359037,0.05937249142385452,-0.007354788084549243,-0.01358538743522738
3,660.0,-3.287238879394531,7.960720520019531,-2.8754361938476563,-0.04743032165725049,-0.8513476274995242,-0.05542419609386574,-1.1551613293980392,7.758697108287843,-3.9105307567861582,-0.30050111739101415,-0.4929109468961892,-0.3588021531046311,-1.7908628417968748,7.960720520019531,-3.6918589599609373,-0.13816079651283358,-0.8513476274995242,-0.3853047478448551,-0.9795080550486611,8.009334938237028,-4.444759940170226,-0.4191952221375422,-0.5213644250267411,-0.5359303133521008,-3.287238879394531,7.960720520019531,-2.8754361938476563,-0.04743032165725049,-0.8513476274995242,-0.05542419609386574,0.9980344690130616,0.06000852962351921,-0.011231210772169629,-0.014143370843991377
3,670.0,-1.7908628417968748,8.813056311035156,-2.913743420410156,-0.13669525286612078,-1.215068914365518,-0.43526646307370037,-1.2823016318778064,7.969568948837306,-3.711173289510958,-0.2677399444860355,-0.637342540390055,-0.374095015098445,-1.7908628417968748,8.813056311035156,-3.6918589599609373,-0.13816079651283358,-0.8513476274995242,-0.43526646307370037,-1.0212816381206942,8.12345287346649,-4.586395960983792,-0.3983086970798128,-0.4376663809561576,-0.5059188807945718,-1.7908628417968748,8.813056311035156,-2.913743420410156,-0.13669525286612078,-1.215068914365518,-0.43526646307370037,0.9978995452145717,0.06024124017771992,-0.016980727603324138,-0.016707648920869282
3,680.0,-0.00718260498046875,10.206481677246094,-3.8235400512695312,-0.5563736607884214,-0.9300872907001844,-1.247044412111979,-1.027277826498339,8.416951494519065,-3.733646641862673,-0.3254666877465127,-0.6958914904520809,-0.5486848945011519,-0.5674257934570313,8.813056311035156,-3.7301661865234372,-0.5563736607884214,-0.8513476274995242,-0.43526646307370037,-1.0738579452164336,8.254591173101081,-4.733180602916874,-0.3651371437260443,-0.3351431067660997,-0.45476058004827047,-0.00718260498046875,10.206481677246094,-3.8235400512695312,-0.5563736607884214,-0.9300872907001844,-1.247044412111979,0.9977914435501835,0.05848331933895233,-0.021223646686967735,-0.023270009850574817
3,690.0,1.01514150390625,9.880870251464843,-3.7301661865234372,-0.7695436457648281,-0.5643675352250367,-1.2723583478279274,-0.6187939604174213,8.70973524590822,-3.7329505507948264,-0.4142820793501758,-0.669586699406672,-0.693419585166507,-0.5674257934570313,8.813056311035156,-3.8235400512695312,-0.7695436457648281,-0.5643675352250367,-0.43526646307370037,-1.1465503404909567,8.40069307812606,-4.86977894984486,-0.31090654707314913,-0.21966885161742994,-0.37496188182099244,1.01514150390625,9.880870251464843,-3.7301661865234372,-0.7695436457648281,-0.5643675352250367,-1.2723583478279274,0.9977191133148219,0.05569518284338699,-0.02370921975937813,-0.029874578369055577
3,700.0,-0.5674257934570313,7.955932116699218,-5.793968017578124,-0.8901179185171081,0.05129402763494786,-0.40675497758310597,-0.6085203270253433,8.55897462006642,-4.145154044151487,-0.5094492471835623,-0.5254105539983481,-0.6360866636498268,-0.5674257934570313,7.955932116699218,-5.793968017578124,-0.7695436457648281,0.05129402763494786,-0.40675497758310597,-1.2421681690116424,8.572114973161828,-4.9698736518524536,-0.22824345210202207,-0.10229971841782998,-0.2638892792323392,-0.5674257934570313,7.955932116699218,-5.793968017578124,-0.8901179185171081,0.05129402763494786,-0.40675497758310597,0.9978482175052316,0.052303882742441694,-0.023198207936957246,-0.032016898978677884
3,710.0,-0.9959878906249999,6.236895324707031,-7.208941198730468,-0.8188392047906221,0.9539356827694199,0.15121745809263848,-0.6860138397452746,8.094558760994543,-4.757911475067283,-0.5713272387049744,-0.22954130664479452,-0.47862583930133373,-0.9959878906249999,6.945579016113281,-6.035782385253906,-0.7695436457648281,0.4198116391629109,0.15121745809263848,-1.3512361199350311,8.786993392332791,-5.002964766930954,-0.11393246770826143,0.0036045739741252815,-0.12443358698387175,-0.9959878906249999,6.236895324707031,-7.208941198730468,-0.8188392047906221,0.9539356827694199,0.15121745809263848,0.9981290715413158,0.049345479522135714,-0.018279767130856172,-0.03113246389933076
3,720.0,-1.62805712890625,5.255272644042968,-6.035782385253906,-0.36358805562538365,0.6351133239890816,0.1881225117416789,-0.8744224975774697,7.526701537604229,-5.013485657104608,-0.5297794020890563,-0.05661038051801931,-0.3452761690927312,-1.62805712890625,6.945579016113281,-6.124367846679687,-0.36358805562538365,0.4198116391629109,0.15121745809263848,-1.4548334663766729,9.057280911830158,-4.944462445602558,0.02944623985286307,0.08675938799400165,0.038005818894855485,-1.62805712890625,5.255272644042968,-6.035782385253906,-0.36358805562538365,0.6351133239890816,0.1881225117416789,0.9982543645254642,0.04858622375503041,-0.014892641371132604,-0.030096707462416286
3,730.0,-1.9919757812499999,6.945579016113281,-6.124367846679687,0.10778407365369562,0.4198116391629109,0.23848392069235497,-1.097933154311976,7.410477033306039,-5.235662095019624,-0.4022667069405059,0.03867402341816674,-0.22852415113571395,-1.9919757812499999,6.945579016113281,-6.574477758789062,0.10778407365369562,0.4198116391629109,0.15121745809263848,-1.5303659156117557,9.373583886114304,-4.78305434073371,0.19365294353983598,0.1411936105289277,0.21853643019621502,-1.9919757812499999,6.945579016113281,-6.124367846679687,0.10778407365369562,0.4198116391629109,0.23848392069235497,0.9982458170233397,0.050143121995767106,-0.012664437734585862,-0.028819578914156856
3,740.0,-3.0813375366210938,10.690110412597656,-7.067683300781249,0.4736370603694536,-0.022516079663132956,-0.11591117933092113,-1.4946140307737994,8.066403709164364,-5.60206633617195,-0.227085953478514,0.0264360028019068,-0.2060015567747554,-2.549824768066406,10.690110412597656,-6.124367846679687,0.4736370603694536,0.37890964829556284,0.1881225117416789,-1.5566957822700096,9.699858039018018,-4.52259790599999,0.36662425019017236,0.16607799745327287,0.4131537683068125,-3.0813375366210938,10.690110412597656,-7.067683300781249,0.4736370603694536,-0.022516079663132956,-0.11591117933092113,0.9980566374306571,0.053480996045806875,-0.012594780952707139,-0.02939562952739449
3,750.0,-2.549824768066406,12.605471740722656,-6.574477758789062,0.6829433393681629,0.199713629674771,-0.20397702937429915,-1.7056561782323207,8.974217315476023,-5.796548620695373,-0.045080094909178636,0.06109152817647964,-0.20559665129466417,-2.549824768066406,11.899182250976562,-6.124367846679687,0.6829433393681629,0.29830474772635907,0.23848392069235497,-1.5191271408095937,9.983858972131296,-4.184060894056925,0.5349021588297962,0.1631618979145675,0.6166318634129622,-2.549824768066406,12.605471740722656,-6.574477758789062,0.6829433393681629,0.199713629674771,-0.20397702937429915,0.9977944226074301,0.05791308197609054,-0.011494136316959416,-0.030335622292326486
3,760.0,-3.0454245117187497,12.562376110839843,-3.73495458984375,0.9535359890475891,0.37890964829556284,0.3661194491969785,-1.973609844929607,9.691849074548788,-5.384229814525049,0.15464312188217494,0.12465515220029628,-0.09125343119633565,-2.549824768066406,11.899182250976562,-3.73495458984375,0.9252909660382153,0.29830474772635907,0.3661194491969785,-1.4136129649207574,10.176677289289517,-3.8080547212744627,0.6855105510040953,0.13477461592393378,0.8195408820056823,-3.0454245117187497,12.562376110839843,-3.73495458984375,0.9535359890475891,0.37890964829556284,0.3661194491969785,0.9975204815886924,0.06367886575379615,-0.009660131618227444,-0.028364991177352333
3,770.0,-1.0893617553710937,11.899182250976562,-1.0749965454101562,1.2231960200427436,0.29830474772635907,0.9045068925030155,-1.7967602270179044,10.133315709834344,-4.52238316070207,0.3683537015142887,0.15938507130550886,0.10789863354353459,-1.0893617553710937,11.899182250976562,-1.2234370483398436,0.9535359890475891,0.3376079637063841,0.9045068925030155,-1.2481337239887524,10.247311486515628,-3.449788395441616,0.8071840572431804,0.08383356586120014,1.0068276826567213,-1.0893617553710937,11.899182250976562,-1.0749965454101562,1.2231960200427436,0.29830474772635907,0.9045068925030155,0.997174386057844,0.0707640585231111,-0.008572045269534074,-0.02371100696716137
3,780.0,0.4285620971679687,10.129867224121092,-0.7062894897460937,0.9252909660382153,0.437664625404685,1.3617565102774079,-1.35169576218073,10.132626012691695,-3.7591644265108752,0.479741154419074,0.21504098212534412,0.35867020889030926,-1.0893617553710937,11.899182250976562,-1.2234370483398436,1.2231960200427436,0.3376079637063841,1.3617565102774079,-1.0390618257281088,10.185113234025343,-3.164289050487497,0.8911779190573973,0.014957139548848784,1.1591985008160306,0.4285620971679687,10.129867224121092,-0.7062894897460937,0.9252909660382153,0.437664625404685,1.3617565102774079,0.9969155337748563,0.07635373591836009,-0.007046586202605585,-0.01672935003494971
3,790.0,0.63206923828125,8.573636145019531,-1.2234370483398436,1.4476906604710218,0.3376079637063841,2.853147017668593,-0.954942762088334,9.820828039157263,-3.252018950876669,0.6733310556294636,0.23955437844155214,0.857565570645966,-1.0893617553710937,11.899182250976562,-1.2234370483398436,1.3748131718572127,0.29830474772635907,2.193119451685394,-0.8023294384504046,9.992294343536882,-2.9916376219629095,0.9314966535403042,-0.06447191289456619,1.2568299182190923,0.63206923828125,8.573636145019531,-1.2234370483398436,1.4476906604710218,0.3376079637063841,0.1881225117416789,0.9964011902622889,0.08446810278058964,-0.0066623432838447665,-0.002328269423819275
3,800.0,-1.68551796875,12.34689796142578,-1.695094775390625,1.7244119472185198,-0.494287902664043,2.4422618716265694,-1.1010578034206673,10.326042023610967,-2.9406341157794604,0.8835472339472749,0.09278592222043311,1.1745048308420867,0.4285620971679687,10.182539660644531,-1.2761094848632812,1.3748131718572127,-0.494287902664043,2.193119451685394,-0.5460610441334917,9.674627988382987,-2.9513691778311215,0.9252916299094093,-0.1439896630564711,1.2848669453629704,-1.68551796875,12.34689796142578,-1.695094775390625,1.7244119472185198,-0.494287902664043,0.1881225117416789,0.9954806374450401,0.09393576015852893,-0.01004553172321158,0.009667508875300488
3,810.0,-1.2785036865234374,13.72595811767578,-1.2761094848632812,1.3748131718572127,-1.1420581945110988,2.193119451685394,-1.1365469800412213,11.006025242423929,-2.607729189596225,0.9818004215292626,-0.1541829011258733,1.3782277550107482,0.55545478515625,10.182539660644531,-1.695094775390625,1.3748131718572127,-0.494287902664043,2.193119451685394,-0.27267221569344513,9.242978916098185,-3.044385940295642,0.8743373418085408,-0.21188215592778054,1.238441452287334,-1.2785036865234374,13.72595811767578,-1.2761094848632812,1.3748131718572127,-1.1420581945110988,0.1881225117416789,0.9944750115810499,0.10168836175885655,-0.01659022015917007,0.020092113346794102
3,820.0,0.55545478515625,10.182539660644531,-2.308010400390625,0.7923261879091815,-0.6000735077085848,1.6081010741657678,-0.7981466270017271,10.84132812606805,-2.547785431755105,0.9439055748052464,-0.2433610224424156,1.4242024188417521,-1.2785036865234374,10.182539660644531,-2.308010400390625,0.7923261879091815,-0.494287902664043,1.6081010741657678,0.013462587909307152,8.726896279893571,-3.255801685520386,0.7860101057474607,-0.2590359753941987,1.1239087393137572,0.55545478515625,10.182539660644531,-2.308010400390625,0.7923261879091815,-0.6000735077085848,1.6081010741657678,0.9937119483129211,0.10652686350874116,-0.020346996626112942,0.02783147246240333
3,830.0,0.74699091796875,7.266402038574219,-3.5242648437499997,0.23621898960198065,0.05329249624410167,0.9684578879959376,-0.48911911800763175,10.126342908569285,-2.743081314154084,0.8023682577645933,-0.18403031870511213,1.3330535126725893,0.3399766357421875,7.266402038574219,-3.5242648437499997,0.573960184548975,-0.6000735077085848,0.9684578879959376,0.3038487602914415,8.18177758512804,-3.5573721303010246,0.6716541308152424,-0.2811265310469021,0.9563729961744752,0.74699091796875,7.266402038574219,-3.5242648437499997,0.23621898960198065,0.05329249624410167,0.9684578879959376,0.9933372942777546,0.10856691893265033,-0.02064583307702832,0.03268016962893658
3,840.0,-1.3623007446289062,4.441244079589843,-5.736507177734374,0.4922894340548892,-0.2560704444529085,-0.10924961730040843,-0.6637554433318866,8.989323142773397,-3.341766486870142,0.7403524930226526,-0.19843834385467143,1.0445928866779897,0.55545478515625,5.801150622558594,-3.67749375,0.4922894340548892,-0.5535758047356061,0.3651868305127067,0.5886769603898743,7.677141986747874,-3.9130969136030327,0.5432719862472801,-0.2768238911583799,0.755384317495426,-1.3623007446289062,4.441244079589843,-5.736507177734374,0.4922894340548892,-0.2560704444529085,-0.10924961730040843,0.9929564692478756,0.11202118938333588,-0.021554412006340434,0.03200172856263343
3,850.0,0.3399766357421875,5.130774157714844,-5.430049365234375,0.573960184548975,-0.9522036766414865,0.10285451775111622,-0.46300902751707185,8.217613345761688,-3.759423062542989,0.7070740313279171,-0.3491914104120345,0.856245212892615,0.74699091796875,5.130774157714844,-3.67749375,0.23621898960198065,-0.2560704444529085,0.10285451775111622,0.8553071477672922,7.276042343828171,-4.288660246023626,0.4115268832192952,-0.24537180267975572,0.5399065328338392,0.3399766357421875,5.130774157714844,-5.430049365234375,0.573960184548975,-0.9522036766414865,0.10285451775111622,0.9923859499999871,0.1159856725376991,-0.026306345241176258,0.032022276756234265
3,860.0,2.442085693359375,5.801150622558594,-3.67749375,0.18412557452337128,-0.5535758047356061,0.3651868305127067,0.11800991665821747,7.734320801121069,-3.7430372000343914,0.6024843399670079,-0.39006828927674886,0.7580335364166334,1.6448165405273436,4.76924970703125,-4.101267443847656,0.18412557452337128,-0.2560704444529085,0.06062021447766565,1.0847464293953686,7.021757417684195,-4.658207180131171,0.2861421250599464,-0.18731816711975383,0.32489918570632564,2.442085693359375,5.801150622558594,-3.67749375,0.18412557452337128,-0.5535758047356061,0.3651868305127067,0.9920235584815246,0.11785313365492167,-0.029570542615893473,0.03354819391219077
3,870.0,1.8124106567382812,4.76924970703125,-3.0741549316406247,-0.3535957125796146,-0.2134364474576272,0.06062021447766565,0.45689006467423027,7.141306582303105,-3.609260746355638,0.41126832945768343,-0.35474192091292456,0.61855087202884,1.8124106567382812,5.130774157714844,-4.101267443847656,-0.3535957125796146,-0.2134364474576272,0.06062021447766565,1.2551913977202644,6.936308552065941,-5.001080121718175,0.17646162370400142,-0.10660616333034727,0.12156587244298184,1.8124106567382812,4.76924970703125,-3.0741549316406247,-0.3535957125796146,-0.2134364474576272,0.06062021447766565,0.9920697639472047,0.1170496920881335,-0.03103069576026937,0.0336756434896874
3,880.0,1.6448165405273436,4.302380383300781,-4.101267443847656,-0.7678116396368948,-0.14921898948348467,-0.5397197557121397,0.694475359844853,6.573521342502641,-3.7076620858540417,0.1754523356387678,-0.3136373346270366,0.38689674648064404,1.8124106567382812,5.686228942871093,-4.101267443847656,-0.7480934160265772,-0.14921898948348467,-0.5397197557121397,1.3490274449205473,7.022505548161679,-5.2913398002906735,0.08994687628490945,-0.010684094060739158,-0.06083669312149723,1.6448165405273436,4.302380383300781,-4.101267443847656,-0.7678116396368948,-0.14921898948348467,-0.5397197557121397,0.9924595032495838,0.11427496407517584,-0.031890533795652425,0.030795468001555474
3,890.0,3.2800562744140622,5.686228942871093,-6.169857678222656,-1.169903523798642,0.4561837678495103,-0.9454088833703637,1.211591542758695,6.396062862576332,-4.2001012043277655,-0.09361883624871414,-0.1596731141317272,0.12043562051044251,1.6448165405273436,5.686228942871093,-6.169857678222656,-0.7480934160265772,-0.0019984686091538127,-0.8328284850546989,1.3557916821945513,7.262714477538397,-5.491452360773072,0.028989888886074625,0.09111066897447023,-0.21512051889678643,3.2800562744140622,5.686228942871093,-6.169857678222656,-1.169903523798642,0.4561837678495103,-0.9454088833703637,0.9932059432260566,0.10942485277336911,-0.029697067274276463,0.02619618543362061
3,900.0,1.4700398193359374,6.461950280761719,-10.330980163574218,-0.7480934160265772,0.9286217470534716,-1.0369387456696082,1.2632811980741434,6.40924034621341,-5.426276996177056,-0.22451375220428677,0.057985858105312565,-0.11103925272556764,1.6448165405273436,6.461950280761719,-6.169857678222656,-0.7480934160265772,-0.0019984686091538127,-0.8328284850546989,1.2733622477540443,7.618112187155151,-5.5586338660034,-0.012135365797017638,0.18980216965776361,-0.33831169226217783,1.4700398193359374,6.461950280761719,-10.330980163574218,-0.7480934160265772,0.9286217470534716,-1.0369387456696082,0.9937504002779849,0.10669779733200939,-0.02482443210447836,0.021435241135391647
3,910.0,-0.9313444458007812,7.292738256835937,-10.625466967773438,1.2065421149664617,-0.0019984686091538127,-0.8328284850546989,0.8243560692991585,6.5859399283379165,-6.466114990496333,0.06169742122986294,0.045988992762419294,-0.2553970991913939,3.2800562744140622,7.292738256835937,-9.564835632324218,0.7404992353117927,0.4561837678495103,-0.8328284850546989,1.107190229535653,8.03233679052125,-5.463714637716335,-0.04723781868901956,0.2790597864749851,-0.43344732930733304,-0.9313444458007812,7.292738256835937,-10.625466967773438,1.2065421149664617,-0.0019984686091538127,-0.8328284850546989,0.9930595281977388,0.11377207256476024,-0.024197077677857212,0.01741236318985485
3,920.0,3.414131567382812,8.951920007324219,-4.728548278808593,1.4720719775026982,-0.9295543657377434,0.35226340017351204,1.3423111689158893,7.0591359441351775,-6.118601648158785,0.34377233248443,-0.14911967893761327,-0.13386499931841273,1.4700398193359374,8.951920007324219,-9.564835632324218,0.7404992353117927,0.5258637066886732,-0.7498254221545105,0.8649719765287543,8.437443108443695,-5.209193325537627,-0.09232234605059787,0.35465864256955426,-0.5088054241522807,-0.7781155395507812,8.951920007324219,-4.728548278808593,-0.33201225160075337,-0.9295543657377434,0.35226340017351204,0.9919178069571348,0.12203253907114915,-0.029203710938955945,0.01882197961402688
3,930.0,3.727771984863281,17.28134758300781,-9.564835632324218,0.7404992353117927,0.5258637066886732,0.31642419644935366,1.8194033321053675,9.103578271909704,-6.807848444991873,0.42311771304990253,-0.01412300181235597,-0.04380716016485946,-0.9002198242187499,8.951920007324219,-4.728548278808593,0.7404992353117927,0.5258637066886732,-0.48309647845278164,0.5568249337035832,8.765445111885088,-4.83126655392204,-0.15676439485600357,0.41024231569119685,-0.5736624771381074,-0.8475473876953125,7.292738256835937,-9.564835632324218,0.7404992353117927,0.5258637066886732,0.31642419644935366,0.9913755807701793,0.12655895536713643,-0.026909522970170806,0.02081264621538925
3,940.0,-0.9002198242187499,11.034875451660156,-1.599326708984375,-0.47310413540701257,1.7013629425929457,-0.7498254221545105,1.2754787008405442,9.489837707859795,-5.766144097790374,0.2438733433585195,0.3289741870687044,-0.18501081256278967,-0.9002198242187499,9.215282189941405,-1.599326708984375,-0.33201225160075337,0.5258637066886732,-0.48309647845278164,0.204770359760371,8.970445028998133,-4.390470971121726,-0.23922847076923742,0.4354506629480951,-0.6333215930898176,-0.9002198242187499,11.034875451660156,-1.599326708984375,-0.47310413540701257,1.7013629425929457,-0.7498254221545105,0.9918174953334438,0.12509702972086745,-0.017954315442356403,0.01806741991837596
3,950.0,-1.6831237670898436,8.80347950439453,-0.1771709228515625,-0.33201225160075337,1.2080076586131745,-0.48309647845278164,0.6837582072544666,9.352566067166743,-4.648349462802612,0.12869622436666495,0.5047808813775985,-0.24462794574078808,-0.9002198242187499,9.701305126953125,-1.599326708984375,-0.47310413540701257,0.7153185308364547,-0.5543751921792676,-0.15580658822626545,9.04457323633751,-3.95784941157477,-0.33085386811176265,0.42063265070387784,-0.6879733604496673,-1.6831237670898436,8.80347950439453,-0.1771709228515625,-0.33201225160075337,1.2080076586131745,-0.48309647845278164,0.9920396323521694,0.12433055053240408,-0.011484566310230548,0.01635196573956682
3,960.0,-2.674323254394531,9.215282189941405,-0.5793968017578125,-0.53465696856895,0.4439264937133669,-0.5543751921792676,0.012141914924667097,9.325109291721676,-3.8345589305936523,-0.003974414220458036,0.4926100038447522,-0.30657739502848397,-0.9552864624023437,9.215282189941405,-1.599326708984375,-0.53465696856895,1.138061257292791,-0.7498254221545105,-0.4893264657857363,9.009037371742917,-3.5941050802761003,-0.4204946821746192,0.36243311672132356,-0.7348366380715355,-2.674323254394531,9.215282189941405,-0.5793968017578125,-0.53465696856895,0.4439264937133669,-0.5543751921792676,0.9923220347712787,0.12260116234852622,-0.008690804556523967,0.013798703357188137
3,970.0,-0.8475473876953125,9.701305126953125,-2.4684219116210935,-1.1340643200744835,0.7153185308364547,-0.9847120993503886,-0.15979594559932883,9.400348458767965,-3.5613315267991403,-0.22999239539126315,0.5371517092430927,-0.4422043358928649,-1.6831237670898436,8.80347950439453,-2.319981408691406,-0.9062388986309489,0.7153185308364547,-0.9847120993503886,-0.7723098840140897,8.895716320940718,-3.333486521723794,-0.49772125323591565,0.2642180781196927,-0.7697708715590509,-0.8475473876953125,9.701305126953125,-2.4684219116210935,-1.1340643200744835,0.7153185308364547,-0.9847120993503886,0.9929679944654615,0.11793198305866638,-0.00452417005464897,0.00928122968179807
3,980.0,-0.9552864624023437,7.211335400390625,-2.3223756103515623,-1.3012695270403525,1.138061257292791,-1.2526401242176097,-0.31889404895993184,8.962545847092498,-3.313540343509625,-0.44424782172108107,0.6573336188530324,-0.6042914935578139,-1.8602946899414061,7.359775903320312,-2.3223756103515623,-0.9062388986309489,0.4439264937133669,-0.9847120993503886,-0.9942321484020228,8.739026381133131,-3.1848662963291274,-0.5547566058455694,0.13420702343926305,-0.7883449561030706,-0.9552864624023437,7.211335400390625,-2.3223756103515623,-1.3012695270403525,1.138061257292791,-1.2526401242176097,0.9936535293685212,0.11240711777276982,0.0019320638516112036,0.003683826376652361
3,990.0,-2.7724855224609373,6.993463049316406,-2.319981408691406,-0.9062388986309489,0.0607534457182759,-1.158978562068601,-0.809612343660133,8.56872928753728,-3.114828556545981,-0.5366460371030546,0.5380175842260811,-0.7152289072599713,-0.9552864624023437,7.359775903320312,-2.4684219116210935,-0.9062388986309489,0.0607534457182759,-0.9847120993503886,-1.152235314715311,8.571954207948082,-3.1411952788142363,-0.5885934992698517,-0.014402553890227135,-0.7877584791874147,-2.7724855224609373,6.993463049316406,-2.319981408691406,-0.9062388986309489,0.0607534457182759,-1.158978562068601,0.9940559377642071,0.1088033068139811,0.003217840083216986,-0.002068460119170916
3,1000.0,-1.8602946899414061,7.359775903320312,-3.4093431640625,-0.43593261927675164,-0.9732542126579067,-0.6415084235383739,-1.0197488129163879,8.326938610693887,-3.1737314780492847,-0.516503353537794,0.2357632248492836,-0.7004848105156519,-1.197100830078125,7.359775903320312,-3.4093431640625,-0.43593261927675164,-0.9152986229924461,-0.6415084235383739,-1.2493416565762634,8.419235869114514,-3.1861665041313265,-0.6014123702753288,-0.16375633040952797,-0.7682462251198902,-1.8602946899414061,7.359775903320312,-3.4093431640625,-0.43593261927675164,-0.9732542126579067,-0.6415084235383739,0.9941804211586008,0.10756657283583511,-0.0010416226629375023,-0.005799794434975934
3,1010.0,-0.7781155395507812,8.865728747558594,-4.422090466308593,-0.1650735071161049,-1.2634318547070402,-0.5017488521382172,-0.9714221582432665,8.434696638066828,-3.4234032757011468,-0.4462173842534562,-0.06407579106198116,-0.660737618840165,-1.5897499023437498,7.714117749023437,-3.4093431640625,-0.37398009239298347,-0.9152986229924461,-0.6240551310184306,-1.2958524517274828,8.294001938885128,-3.298925489557754,-0.598183443132907,-0.2955521918978659,-0.7322844772353433,-0.7781155395507812,8.865728747558594,-4.422090466308593,-0.1650735071161049,-1.2634318547070402,-0.5017488521382172,0.9941200694681961,0.10768467362628589,-0.0069731725670698266,-0.008981837835279541
3,1020.0,-1.197100830078125,7.714117749023437,-3.81156904296875,-0.20770750411138625,-0.9152986229924461,-0.41648085814765456,-1.0165578926102383,8.29058086025815,-3.5010364291546674,-0.3985154082250422,-0.23432035744807417,-0.611886266701663,-1.197100830078125,7.874529260253905,-3.555389465332031,-0.37398009239298347,-0.9152986229924461,-0.6240551310184306,-1.3070572685848816,8.201580457018455,-3.459899012049001,-0.5831949747054729,-0.39648636499953394,-0.6823499826955635,-1.197100830078125,7.714117749023437,-3.81156904296875,-0.20770750411138625,-0.9152986229924461,-0.41648085814765456,0.9940648538879215,0.10759452361339573,-0.01116232609471774,-0.011570964927219174
3,1030.0,-1.5897499023437498,7.874529260253905,-3.3542765258789062,-0.37398009239298347,-0.8235022982119811,-0.6240551310184306,-1.1311962945569407,8.207370540257301,-3.4716844484995155,-0.39360834505863046,-0.3521567456008555,-0.6143200395650166,-0.7781155395507812,8.152256652832031,-3.81156904296875,-0.37398009239298347,-0.8235022982119811,-0.5017488521382172,-1.2987546509330279,8.14440115195278,-3.654495892993439,-0.557822416418343,-0.46043427484381155,-0.6192973936018586,-1.5897499023437498,7.874529260253905,-3.3542765258789062,-0.37398009239298347,-0.8235022982119811,-0.6240551310184306,0.9940679462641033,0.10668624571149683,-0.014732219353978766,-0.015163274684595053
3,1040.0,-0.09576806640624999,8.152256652832031,-3.555389465332031,-0.5084104141687299,-0.7077243501216701,-0.8986447179161644,-0.9241106489268026,8.196347762772248,-3.4884254518660187,-0.41656875888065037,-0.4232702665050185,-0.6711849752352461,-1.197100830078125,8.152256652832031,-3.555389465332031,-0.5084104141687299,-0.7077243501216701,-0.4561837678495103,-1.2853930805076783,8.123164639634034,-3.871465787375755,-0.5203588607816245,-0.48722860911253035,-0.5425535226389581,-0.09576806640624999,8.152256652832031,-3.555389465332031,-0.5084104141687299,-0.7077243501216701,-0.8986447179161644,0.9940960181980911,0.10514789437001254,-0.017743084427465545,-0.02005517058648155
3,1050.0,0.7661445312499999,8.621520178222656,-3.912125512695312,-0.5221332319515861,-0.1716018379060074,-0.4561837678495103,-0.5860596128914421,8.28138224586233,-3.5731654640318777,-0.43768165349483756,-0.3729365807852163,-0.628184733758099,-1.5897499023437498,8.152256652832031,-3.555389465332031,-0.5221332319515861,-0.7077243501216701,-0.4561837678495103,-1.2776365760699409,8.137063425972032,-4.099103528869949,-0.46719004813624626,-0.4803486416926715,-0.45164803020631683,0.7661445312499999,8.621520178222656,-3.912125512695312,-0.5221332319515861,-0.1716018379060074,-0.4561837678495103,0.9942003344831186,0.10354747530184992,-0.01841369329952878,-0.022462216527737687
3,1060.0,-2.0973206542968748,9.016563452148437,-3.342305517578125,-0.6087335383482513,-0.4672419608201614,-0.05249310880044014,-0.8883118211725287,8.428418487119552,-3.5269934747411273,-0.4718920304655203,-0.39179765679220535,-0.5130464087665673,-1.5729904907226562,8.152256652832031,-3.912125512695312,-0.5323920374785757,-0.7077243501216701,-0.2258269528343808,-1.2776920038699628,8.186155815454649,-4.322888411810034,-0.39423083956693383,-0.444583655939395,-0.347125757668128,-2.0973206542968748,9.016563452148437,-3.342305517578125,-0.6087335383482513,-0.4672419608201614,-0.05249310880044014,0.9943643187243568,0.10143712936795732,-0.020458630036883033,-0.023055474196995007
3,1070.0,-2.0781670410156248,8.097190014648437,-4.062960217285156,-0.6645574281639478,-0.844952527950232,-0.18585758065130456,-1.126282865141148,8.36217279262533,-3.6341868232499333,-0.5104251100052059,-0.48242863102381073,-0.4476086431435148,-1.5729904907226562,8.097190014648437,-4.062960217285156,-0.5323920374785757,-0.4672419608201614,-0.18585758065130456,-1.2798036407168838,8.274211561265902,-4.523850900420352,-0.2982282444708769,-0.38468736059601644,-0.2296787906344826,-2.0781670410156248,8.097190014648437,-4.062960217285156,-0.6645574281639478,-0.844952527950232,-0.18585758065130456,0.9944870645636217,0.09901678553583812,-0.024295675764173956,-0.02451274641779209
3,1080.0,-1.5729904907226562,7.4028715332031245,-5.858611462402344,-0.5323920374785757,-0.8348269536638526,-0.2258269528343808,-1.2156243902574497,8.17031254074089,-4.0790717510804155,-0.5148184954998798,-0.5529082955518191,-0.403252305081688,-1.5729904907226562,7.4028715332031245,-5.592855078125,-0.5323920374785757,-0.4672419608201614,-0.1802618685456739,-1.2776128126325228,8.408295281857637,-4.678232149449903,-0.17801507174663048,-0.3063517305053467,-0.09909171008334863,-1.5729904907226562,7.4028715332031245,-5.858611462402344,-0.5323920374785757,-0.8348269536638526,-0.2258269528343808,0.9945167164400056,0.09726812133651921,-0.028137377858567403,-0.026147681738503493
3,1090.0,0.06464344482421874,6.9719152343749995,-6.5601125488281244,-0.37304747370871166,-0.011724349173702367,-0.1802618685456739,-0.9595708232411161,7.930633079467712,-4.575279910629957,-0.4864642911416462,-0.4446715062761958,-0.3586542177744852,-1.5729904907226562,7.4028715332031245,-5.592855078125,-0.37304747370871166,-0.011724349173702367,-0.1802618685456739,-1.268456863306662,8.59364699225144,-4.7620498696785125,-0.0354862488281258,-0.21806972603889113,0.045294189881813114,0.06464344482421874,6.9719152343749995,-6.5601125488281244,-0.37304747370871166,-0.011724349173702367,-0.1802618685456739,0.9945737959649583,0.0964168692168711,-0.028128932094821438,-0.027120377753177535
3,1100.0,-0.6727706665039062,6.593631372070312,-5.592855078125,-0.13736140906917205,0.6415084235383739,-0.042234303273450575,-0.9022107918936741,7.663232737988233,-4.778794944128966,-0.4166437147271514,-0.22743552031328185,-0.2953702348742783,-1.5729904907226562,7.4028715332031245,-5.858611462402344,-0.13736140906917205,-0.011724349173702367,-0.1802618685456739,-1.2495951817414743,8.826300326304361,-4.759052072254248,0.12405397236712956,-0.13049728866576382,0.20323258127627636,-0.6727706665039062,6.593631372070312,-5.592855078125,-0.13736140906917205,0.6415084235383739,-0.042234303273450575,0.9946239149146706,0.09680883042432165,-0.02487226142530306,-0.027068225713566756
3,1110.0,-2.157175695800781,7.977479931640625,-5.2624552490234375,0.10964931102223918,0.24781010753507277,-0.0706125575234347,-1.1532037726750957,7.7260821767187124,-4.87552700510786,-0.31138510957727333,-0.13238639474361094,-0.2504186994041096,-1.01514150390625,7.977479931640625,-5.592855078125,0.10964931102223918,0.0075941807147844875,-0.0706125575234347,-1.213641437111,9.087205172949547,-4.664931765057255,0.2921313928408581,-0.052998594814976326,0.37243737576517144,-2.157175695800781,7.977479931640625,-5.2624552490234375,0.10964931102223918,0.24781010753507277,-0.0706125575234347,0.9944993767223572,0.09836221393790162,-0.023434607420070915,-0.027325514508330092
3,1120.0,-2.3223756103515623,11.360486877441405,-6.758831286621094,0.35426186878266586,-0.34959877536130696,-0.36558652423453747,-1.387038140210389,8.452963116863252,-5.252187861410507,-0.1782557139052855,-0.17582887086715016,-0.2734522643701952,-1.01514150390625,10.369287390136718,-5.298368273925781,0.35426186878266586,0.24781010753507277,-0.042234303273450575,-1.1509737927664272,9.342643061285223,-4.486732842512036,0.45768765877772005,0.008695618172591292,0.5473584230859516,-2.3223756103515623,11.360486877441405,-6.758831286621094,0.35426186878266586,-0.34959877536130696,-0.36558652423453747,0.9941335029154104,0.10109095661619896,-0.024905682496083787,-0.02930706145218044
3,1130.0,-1.01514150390625,10.43871923828125,-5.298368273925781,0.7472940285829156,0.0075941807147844875,0.5366554371781038,-1.3126588129495613,8.850114341146853,-5.261423943913561,0.006854234592354735,-0.13914426055076323,-0.1114307240605354,-1.01514150390625,10.369287390136718,-5.2624552490234375,0.7472940285829156,0.24781010753507277,0.5366554371781038,-1.0561648685486376,9.55370113989265,-4.243368725650776,0.6079323259704407,0.05113421370461855,0.717601024899427,-1.01514150390625,10.43871923828125,-5.298368273925781,0.7472940285829156,0.0075941807147844875,0.5366554371781038,0.9937216493535029,0.10571698432164991,-0.02520531769446168,-0.02656868065996218
3,1140.0,-0.7613561279296874,10.369287390136718,-4.378994836425781,1.2065421149664617,0.5866171524069491,1.3149923448232086,-1.2023982759455867,9.153948950944827,-5.0849381224160055,0.24679181066717615,0.006008022040779229,0.1738538897162134,-0.7613561279296874,10.369287390136718,-4.378994836425781,1.2065421149664617,0.5866171524069491,1.3149923448232086,-0.9300128223638228,9.68754379449173,-3.967275124274615,0.7297114597505658,0.0709711212975816,0.8678796459483505,-0.7613561279296874,10.369287390136718,-4.378994836425781,0.11910872910556723,0.5866171524069491,1.3149923448232086,0.9931786670435889,0.11259507513335164,-0.02311703618563372,-0.019598138259205478
3,1150.0,-0.26815058593749996,9.947907897949218,-1.944091748046875,1.308863707755137,1.0433338452189005,1.5256309362280205,-1.0155487379439694,9.312740740345705,-4.45676884754218,0.4592061900847684,0.2134731866764035,0.44420929901857487,-0.7613561279296874,10.369287390136718,-2.013523596191406,1.308863707755137,0.5866171524069491,1.5256309362280205,-0.775959181569335,9.720916789663724,-3.700897209511078,0.8115353654351677,0.06589633958325829,0.9811168267616799,-0.26815058593749996,9.947907897949218,-1.944091748046875,0.11910872910556723,1.0433338452189005,-0.042234303273450575,0.9925310134850718,0.1199851828639301,-0.01891928181258104,-0.01130504042902075
3,1160.0,-0.565031591796875,9.8449572265625,-2.013523596191406,1.5089770311517388,0.5968759579339387,1.7463951019192117,-0.9254453087145506,9.419184037589064,-3.9681197972720255,0.6691603582981624,0.2901537409279105,0.7046464595987023,-0.565031591796875,10.369287390136718,-1.944091748046875,1.308863707755137,0.5866171524069491,1.7463951019192117,-0.5961447464067273,9.637339530262574,-3.486970724070612,0.8456697087957391,0.03802378303029136,1.042706761818892,-0.565031591796875,9.8449572265625,-2.013523596191406,0.11910872910556723,0.5968759579339387,-0.042234303273450575,0.9915863168804188,0.12830141836029663,-0.017048495802982802,-0.0021612526732101333
3,1170.0,-2.0302830078125,13.958195678710936,-1.908178723144531,1.559871365064856,-0.5370551308999346,1.9397136320446906,-1.1464128485341405,10.32698636581344,-3.5561315824465267,0.8473025596515011,0.12471196656234149,0.9516598940879,-0.26815058593749996,9.947907897949218,-1.908178723144531,1.308863707755137,-0.3956967846124549,1.7463951019192117,-0.3912956964683226,9.426835606256983,-3.358676765993941,0.8296750425722977,-0.004499941804873922,1.0434464747367833,-2.0302830078125,13.958195678710936,-1.908178723144531,1.559871365064856,-0.5370551308999346,1.9397136320446906,0.9903520662082319,0.13680943539214252,-0.02083299450096457,0.0072076129815461035
3,1180.0,0.0430956298828125,12.689268798828124,-1.5801730957031248,1.2704931104593837,-0.6425742734632559,1.8160750407583746,-0.90851115285075,10.799442852416377,-3.1609398850978465,0.9319406698130777,-0.028745281442778006,1.124542923421995,0.0430956298828125,9.8449572265625,-1.908178723144531,1.2704931104593837,-0.3956967846124549,1.7463951019192117,-0.16463123513095543,9.094880948557924,-3.334714785317736,0.767322965123992,-0.05034650566939623,0.9812233250804239,0.0430956298828125,12.689268798828124,-1.5801730957031248,1.2704931104593837,-0.6425742734632559,1.8160750407583746,0.9891459835868583,0.14388596559393058,-0.02520422226337573,0.015868183235239326
3,1190.0,0.7254431030273437,9.358934289550781,-1.8339584716796873,0.5414517618400729,-0.3956967846124549,1.4013261887386534,-0.5817203016751312,10.511341139843257,-2.8955436024142145,0.8538428882184768,-0.10213558207671339,1.1798995764853268,0.0430956298828125,9.358934289550781,-1.908178723144531,0.5414517618400729,-0.3956967846124549,1.4013261887386534,0.07577064272653701,8.674204670048358,-3.418079780422263,0.6683114383695856,-0.08985974651187129,0.8618636172079099,0.7254431030273437,9.358934289550781,-1.8339584716796873,0.5414517618400729,-0.3956967846124549,1.4013261887386534,0.9884221383675349,0.1473710635632171,-0.028185091136409865,0.022562062113829506
3,1200.0,1.465251416015625,6.461950280761719,-2.482787121582031,0.08220367545652682,0.18106125598933542,0.7195819305359827,-0.17232595813698004,9.70146296802695,-2.8129923062477777,0.6995150456660868,-0.04549621446350363,1.087836047295458,0.0430956298828125,6.461950280761719,-2.482787121582031,0.18479173072642255,-0.3956967846124549,0.7195819305359827,0.3208657324724438,8.223259321693233,-3.5958757811909643,0.5458825766026929,-0.11719059396085536,0.6984159306663222,1.465251416015625,6.461950280761719,-2.482787121582031,0.08220367545652682,0.18106125598933542,0.7195819305359827,0.9881528335608545,0.1485944252887775,-0.028001147807324794,0.026260426885799614
3,1210.0,-0.8714894042968749,5.025429284667968,-4.383783239746093,0.11910872910556723,-0.11830934166190571,0.10098928038257267,-0.31215864736895904,8.766256231355154,-3.127150492947441,0.5834337823539829,-0.060058839903184044,0.890466693912881,0.7254431030273437,5.686228942871093,-4.383783239746093,0.17253445659027916,-0.3956967846124549,0.10098928038257267,0.5655305997682916,7.80879694749232,-3.8414358373109305,0.41317336423882217,-0.12871330379131757,0.5084280557667147,-0.8714894042968749,5.025429284667968,-4.383783239746093,0.11910872910556723,-0.11830934166190571,0.10098928038257267,0.9878939298508951,0.15014223925041995,-0.028518407949741538,0.026638163687403058
3,1220.0,-0.34237083740234375,5.260061047363281,-5.082890124511718,0.18479173072642255,-0.7903277193000278,-0.12417151624875689,-0.31820108537563596,8.065017194556779,-3.518298419260297,0.5037053720284709,-0.2061126157825528,0.6875390518805535,0.842758984375,5.336675500488281,-4.886565588378906,0.11910872910556723,-0.3927656973190293,0.014522205226517705,0.8063886478051873,7.4864975964988805,-4.1207693039993,0.28076676923531885,-0.12121341188200217,0.3101120974692165,-0.34237083740234375,5.260061047363281,-5.082890124511718,0.18479173072642255,-0.7903277193000278,-0.12417151624875689,0.9875048062181365,0.1521408993421953,-0.0322675218696571,0.025420689916285412
3,1230.0,0.842758984375,5.686228942871093,-5.181052392578125,0.17253445659027916,-0.9139663105863436,0.014522205226517705,-0.08600907142550879,7.589259544219642,-3.850849213923863,0.4374711889408326,-0.347683354743311,0.5529356825497463,0.842758984375,5.336675500488281,-4.886565588378906,0.11910872910556723,-0.3927656973190293,-0.12417151624875689,1.0349143763894082,7.290915369454684,-4.401047264708613,0.15665687412106485,-0.09307972465374513,0.11937539416149995,0.842758984375,5.686228942871093,-5.181052392578125,0.17253445659027916,-0.9139663105863436,0.014522205226517705,0.9870608699592232,0.15405742926033011,-0.03689994319233368,0.024810112402853784
3,1240.0,1.7932570434570312,5.336675500488281,-4.886565588378906,-0.07927258816310123,-0.3927656973190293,-0.24354670783554463,0.28984415155099924,7.13874273547337,-4.057992488814872,0.33412243352004584,-0.35669982325845473,0.3936392044726882,1.6112977172851561,5.523423229980469,-5.068524914550781,-0.07927258816310123,-0.3927656973190293,-0.24354670783554463,1.2352153067173353,7.2348496498928565,-4.655846815900766,0.047403641284987155,-0.047297269360258846,-0.05091187683417375,1.7932570434570312,5.336675500488281,-4.886565588378906,-0.07927258816310123,-0.3927656973190293,-0.24354670783554463,0.9869222484727779,0.1546805349022511,-0.03893238193294215,0.02329543364733516
3,1250.0,1.6112977172851561,5.523423229980469,-4.386177441406249,-0.45098774946571035,0.17080245046234585,-0.7293078111005313,0.5541348646978306,6.81567883437479,-4.123629479333148,0.17710039692289462,-0.2511993685142946,0.16904980135804432,1.7932570434570312,5.686228942871093,-5.068524914550781,-0.45098774946571035,0.17080245046234585,-0.7293078111005313,1.3884224562523206,7.3117817303923545,-4.864732851710049,-0.04137628078213409,0.007604860940664266,-0.19044898165209773,1.6112977172851561,5.523423229980469,-4.386177441406249,-0.45098774946571035,0.17080245046234585,-0.7293078111005313,0.9872266270333118,0.15350364240970266,-0.037822779327867845,0.019739706363066198
3,1260.0,2.612074011230469,8.034940771484374,-5.068524914550781,-0.8761286382530314,0.7490260347108489,-1.1437902006390321,0.9657226940043583,7.059531221796707,-4.3126085663766744,-0.03354541011229059,-0.0511542878692659,-0.09351819904137096,1.7932570434570312,7.714117749023437,-5.068524914550781,-0.45098774946571035,0.3499984690831377,-0.7293078111005313,1.4778420438954585,7.498421636233951,-5.0095427633825125,-0.10608060735573682,0.06015010683317262,-0.2920921014185715,2.612074011230469,8.034940771484374,-5.068524914550781,-0.8761286382530314,0.7490260347108489,-1.1437902006390321,0.9879722269252599,0.15023654582042847,-0.033606244289095685,0.01450791056875414
3,1270.0,1.889025109863281,7.714117749023437,-5.947196923828125,-0.9877764178844244,0.9231592661884511,-1.3494992361412645,1.150383177176143,7.1904485272420535,-4.639526237866964,-0.22439161166671737,0.1437084229422775,-0.3447144064613497,1.6112977172851561,7.979874133300781,-5.947196923828125,-0.45098774946571035,0.3499984690831377,-0.7293078111005313,1.4920104378465167,7.760260682006742,-5.072077818129532,-0.14742966106719094,0.10034372342533127,-0.3540531589640987,1.889025109863281,7.714117749023437,-5.947196923828125,-0.9877764178844244,0.9231592661884511,-1.3494992361412645,0.9887773992958033,0.14644898401081807,-0.02831811888731678,0.008368623943641797
3,1280.0,1.5322890624999999,7.979874133300781,-6.967126831054687,0.022649310903743208,0.3499984690831377,-0.6332480866205381,1.2267643542409143,7.348333648453799,-5.105046356504509,-0.17498342715262527,0.18496643217044956,-0.4024211424931874,1.889025109863281,8.001421948242188,-5.947196923828125,0.022649310903743208,0.3499984690831377,-0.6332480866205381,1.4257251519967904,8.058953946116288,-5.036720168730841,-0.17215472769494963,0.12319924877388085,-0.3819013387067261,1.5322890624999999,7.979874133300781,-6.967126831054687,0.022649310903743208,0.3499984690831377,-0.6332480866205381,0.9886847149747413,0.1475828776685695,-0.02629880144258696,0.005495601610561715
3,1290.0,1.0773907470703123,8.001421948242188,-6.402095239257812,0.6129969380477794,0.027312404325102107,0.16600612580037669,1.196889632806794,7.478951308411477,-5.364456133055169,-0.017387354112544315,0.15343562660138005,-0.2887356888344746,1.5322890624999999,8.001421948242188,-6.402095239257812,0.06195252688376819,0.027312404325102107,0.16600612580037669,1.2784197455468866,8.355785338417597,-4.896809895053924,-0.1913595881459042,0.12918044371706874,-0.38773153628323825,1.0773907470703123,8.001421948242188,-6.402095239257812,0.6129969380477794,0.027312404325102107,0.16600612580037669,0.9880772707668227,0.15154296441986154,-0.02639978070242041,0.006410031801147371
3,1300.0,3.574543078613281,9.662997900390625,-5.353434912109375,0.512140888905817,-0.7414318539960645,0.44925574333777707,1.6724203219680915,7.915760626807307,-5.362251888866011,0.08851829449112796,-0.025537869518108852,-0.14113740240002426,1.35990654296875,9.662997900390625,-6.402095239257812,0.06195252688376819,0.027312404325102107,0.16600612580037669,1.0527241731771644,8.611731223738017,-4.659441465006087,-0.21552975586135387,0.12131272583360654,-0.38571004384288937,3.574543078613281,9.662997900390625,-5.353434912109375,0.512140888905817,-0.7414318539960645,0.44925574333777707,0.9874128161278437,0.15494227822570422,-0.03069656495537565,0.008157319697654944
3,1310.0,1.35990654296875,13.527239379882811,-7.568071447753906,0.06195252688376819,-0.3634548243847734,0.23875038317357547,1.6099175661682232,9.038056377422409,-5.80341580064359,0.083205140969656,-0.09312126049144177,-0.06515984528530433,1.0773907470703123,9.662997900390625,-5.353434912109375,0.06195252688376819,0.027312404325102107,0.16600612580037669,0.757754170707111,8.791828035253753,-4.3465768791059585,-0.2501241308393334,0.10086171222302398,-0.3866761770995444,1.35990654296875,7.8362220336914055,-7.568071447753906,0.06195252688376819,-0.3634548243847734,0.23875038317357547,0.9871435943671556,0.15617833450052296,-0.03277161984365997,0.00904836257882325
3,1320.0,-0.3112462158203125,11.379640490722656,-3.6559459350585937,-0.37198162378382965,0.8602741206204112,-0.5546416546604881,1.2256848097705162,9.506373200082459,-5.3739218275265905,-0.007832211981041115,0.09755781573092882,-0.16305620716034108,0.055066638183593745,9.662997900390625,-3.6559459350585937,-0.18305972459848924,0.05555742733447599,-0.18545788692947382,0.4127683246147539,8.877634008557168,-3.995697493732347,-0.2949697615536503,0.06505349765753124,-0.3956067525390088,-0.3112462158203125,11.379640490722656,-3.6559459350585937,-0.37198162378382965,0.8602741206204112,-0.5546416546604881,0.9874363739781306,0.15534848117146272,-0.028086479079604418,0.0068852331516244996
3,1330.0,0.055066638183593745,7.1203557373046875,-0.39983167724609375,-0.18305972459848924,0.6572297099303839,-0.18545788692947382,0.9915611754531317,9.029169707526906,-4.379103797470491,-0.04287771450453074,0.20949219457081986,-0.16753654311416766,-0.3112462158203125,9.208099584960937,-2.250549560546875,-0.30483307851626157,0.05555742733447599,-0.20744104163016575,0.043704785879680366,8.876203238326411,-3.656237890543226,-0.34646856492863787,0.0095345561435929,-0.41292411669224777,0.055066638183593745,7.1203557373046875,-0.39983167724609375,-0.18305972459848924,0.6572297099303839,-0.18545788692947382,0.9875217330623868,0.15540095865823705,-0.02469982176025439,0.0064255414225411756
3,1340.0,-0.33518823242187495,7.8362220336914055,-0.7158662963867187,-0.30483307851626157,0.05555742733447599,-0.20744104163016575,0.7262112938781304,8.790580172759807,-3.646456297253737,-0.0952687873068769,0.1787052411235511,-0.17551744281736728,-0.33518823242187495,8.55448253173828,-2.250549560546875,-0.37198162378382965,0.18758958677923787,-0.5371883621405448,-0.3231083187581659,8.811584519607006,-3.375025305057319,-0.39959881312677614,-0.06705026475827895,-0.43683443627274327,-0.33518823242187495,7.8362220336914055,-0.7158662963867187,-0.30483307851626157,0.05555742733447599,-0.20744104163016575,0.9876227427690586,0.15487308613710782,-0.024223189285609074,0.0053742214807092755
3,1350.0,-1.7525556152343749,9.208099584960937,-2.250549560546875,-0.7346370607249415,-0.3577258810385325,-0.615395100378764,0.23045791205562943,8.874084055200033,-3.367274949912365,-0.22314244199048983,0.07141901669113439,-0.26349297432964663,-1.2593500732421874,7.8362220336914055,-2.250549560546875,-0.7346370607249415,0.18758958677923787,-0.41088514604202386,-0.6634592558879355,8.70833427441603,-3.1804849798970696,-0.44866067624481937,-0.161715812923417,-0.46420948835823517,-1.7525556152343749,9.208099584960937,-2.250549560546875,-0.7346370607249415,-0.3577258810385325,-0.615395100378764,0.9880115131617027,0.1522714828554937,-0.02535673371976986,0.001918703722993211
3,1360.0,-1.2593500732421874,8.55448253173828,-2.942473840332031,-0.7859310883598893,0.18758958677923787,-0.5371883621405448,-0.06750368500393394,8.810163750507684,-3.2823147279962983,-0.33570017126436974,0.09465313070875508,-0.3182320518918263,-1.7525556152343749,7.8362220336914055,-2.530671154785156,-0.7346370607249415,0.05555742733447599,-0.42607350747159284,-0.9565408967384171,8.585719289869655,-3.0801637609725483,-0.4881408945777816,-0.269089234279919,-0.4909920612886736,-1.2593500732421874,8.55448253173828,-2.942473840332031,-0.7859310883598893,0.18758958677923787,-0.5371883621405448,0.9884866102467128,0.14940654564745057,-0.023903239407514636,-0.0007352730693420922
3,1370.0,-2.5809493896484375,7.60398447265625,-2.530671154785156,-0.8746630946063186,0.27592189930383637,-0.41088514604202386,-0.5701928259328347,8.568927894937397,-3.13198601335407,-0.4434927559327595,0.13090688442777135,-0.33676267072186583,-1.7525556152343749,8.55448253173828,-2.942473840332031,-0.7346370607249415,-0.3577258810385325,-0.5371883621405448,-1.1873207198518958,8.460715500141367,-3.0686694258237135,-0.5142410013588711,-0.3822578297078374,-0.5130272255311982,-2.5809493896484375,7.60398447265625,-2.530671154785156,-0.8746630946063186,0.27592189930383637,-0.41088514604202386,0.9890294189096545,0.14605447038638236,-0.021941950069364616,-0.002729659051611872
3,1380.0,-2.7653029174804686,6.825868933105468,-3.1076737548828124,-0.5716952534586006,-0.56609954135297,-0.42607350747159284,-1.0092148442423616,8.220316102571012,-3.1271235616598183,-0.4691332554379277,-0.008494400728376927,-0.3546248380718113,-1.438915197753906,8.55448253173828,-2.942473840332031,-0.5716952534586006,-0.56609954135297,-0.5371883621405448,-1.3490577645425128,8.347710896523568,-3.1347044648682263,-0.5258831856624387,-0.4913911072830477,-0.5262505316622988,-2.7653029174804686,6.825868933105468,-3.1076737548828124,-0.5716952534586006,-0.56609954135297,-0.42607350747159284,0.989243682458856,0.14417806398776456,-0.024097259983380123,-0.0053800224233458305
3,1390.0,-1.3120225097656248,8.8489693359375,-3.0813375366210938,-0.22316232802217573,-1.5951776438265732,-0.8167075049408581,-1.0697763773470144,8.34604674924431,-3.1179663566520737,-0.41993906995477737,-0.3258310493480162,-0.44704137144562067,-2.0925322509765625,7.802703210449218,-3.0813375366210938,-0.5716952534586006,-0.8598744268985804,-0.5523767235701138,-1.4452017153944459,8.254637844735306,-3.263825367523813,-0.5242059129611227,-0.5839716727376382,-0.5263538468868578,-1.3120225097656248,8.8489693359375,-3.0813375366210938,-0.22316232802217573,-1.5951776438265732,-0.8167075049408581,0.9890146613716229,0.1440802002744215,-0.03126970201006793,-0.010634905597062361
3,1400.0,-1.438915197753906,9.126696728515624,-2.492363928222656,-0.327082695698174,-0.9033078113375232,-0.8169739674220786,-1.1436041414283928,8.502176745098573,-2.9928458709661903,-0.4013677951034567,-0.44132640174591764,-0.5210278906409123,-1.438915197753906,7.802703210449218,-3.1076737548828124,-0.42181010777206474,-0.9033078113375232,-0.8167075049408581,-1.4878821083832061,8.183595966588527,-3.4389906384921614,-0.5107419091729818,-0.6485257814720314,-0.5093472114144593,-1.438915197753906,9.126696728515624,-2.492363928222656,-0.327082695698174,-0.9033078113375232,-0.8169739674220786,0.9889116226367236,0.1434950339371808,-0.035001672959722195,-0.015422734497827523
3,1410.0,-2.0925322509765625,7.802703210449218,-4.036623999023437,-0.7054594190312958,-0.8598744268985804,-0.5523767235701138,-1.333389763338027,8.362282038168702,-3.2016014965776396,-0.4621861198890246,-0.5250360067764502,-0.5272976572267526,-1.3120225097656248,8.595183959960938,-4.036623999023437,-0.327082695698174,-0.9033078113375232,-0.8167075049408581,-1.4934212911867368,8.136722813345283,-3.639929988751194,-0.48590522985610507,-0.677927423702627,-0.47284491826655217,-2.0925322509765625,7.802703210449218,-4.036623999023437,-0.7054594190312958,-0.8598744268985804,-0.5523767235701138,0.989077224269376,0.14098377239748344,-0.0386084113611805,-0.01895286058427057
3,1420.0,0.1292868896484375,6.691793640136718,-6.074089611816406,-0.42181010777206474,-1.9322526825705162,-1.154182237406632,-1.040854432740734,8.028184358562306,-3.776099119625393,-0.45411091746563265,-0.8064793419352635,-0.6526745732627285,-1.438915197753906,8.595183959960938,-4.036623999023437,-0.327082695698174,-0.8598744268985804,-0.5523767235701138,-1.4790086929753417,8.118516579600202,-3.844724014427929,-0.4492229393171911,-0.6698573547555252,-0.4169547250671419,0.1292868896484375,6.691793640136718,-6.074089611816406,-0.42181010777206474,-1.9322526825705162,-1.154182237406632,0.9886872434891159,0.13989248724570247,-0.047382606865813484,-0.026124990731184006
3,1430.0,1.1468225952148436,8.595183959960938,-5.537788439941406,-0.1564134764764384,-0.09272894346473691,0.2419479329482216,-0.6033190271496186,8.141584278842034,-4.128436983688596,-0.39457142926779387,-0.6637292622411582,-0.47375007202053854,-2.0925322509765625,8.595183959960938,-4.036623999023437,-0.27379019945407235,-0.8598744268985804,-0.11790964794007494,-1.4582011180304733,8.131662633799376,-4.037009561588756,-0.40017693774264423,-0.6268025387672692,-0.34452839430849086,1.1468225952148436,8.595183959960938,-5.537788439941406,-0.1564134764764384,-0.09272894346473691,0.2419479329482216,0.9886625497702549,0.13999769344085078,-0.04816212417938347,-0.025048319455593063
3,1440.0,-3.3255461059570313,8.722076647949219,-2.877830395507812,-0.0848683002687319,-0.44672434976618225,0.6127304755665589,-1.1477644429111011,8.257682752663472,-3.8783156660524396,-0.3326308034679815,-0.620328279746163,-0.2564539625031191,-0.8188169677734375,8.595183959960938,-3.564966271972656,-0.27379019945407235,-0.7145191433927931,-0.11790964794007494,-1.434592822667487,8.174723321269957,-4.212181806358635,-0.33780993521706143,-0.5552221055949249,-0.2595698619277964,-3.3255461059570313,8.722076647949219,-2.877830395507812,-0.0848683002687319,-0.44672434976618225,0.6127304755665589,0.9885659191132894,0.14030051357722878,-0.05049550684606595,-0.022436426765907583
3,1450.0,-2.588131994628906,9.083601098632812,-2.5713725830078125,-0.27379019945407235,-0.8891852998328363,-0.11790964794007494,-1.4358379532546621,8.42286642185734,-3.6169270494435146,-0.3208626826651997,-0.6740996837634977,-0.2287450995905103,-0.8188169677734375,8.595183959960938,-3.564966271972656,-0.27379019945407235,-0.44672434976618225,-0.11790964794007494,-1.4037759977939193,8.246114436383351,-4.372671453294811,-0.259685599098132,-0.4628459931003356,-0.16355001387598095,-2.588131994628906,9.083601098632812,-2.5713725830078125,-0.27379019945407235,-0.8891852998328363,-0.11790964794007494,0.9883868124771823,0.13981950223815606,-0.05455384661800691,-0.023788516856855336
3,1460.0,-0.8188169677734375,8.473079675292968,-3.564966271972656,-0.5399862181933601,-0.7145191433927931,-0.4148820832603315,-1.3124337561584172,8.432909072544465,-3.606534893949343,-0.36468738977083176,-0.6821835756893568,-0.26597249632447456,-0.967257470703125,8.473079675292968,-3.564966271972656,-0.5399862181933601,-0.44672434976618225,-0.26193261903975973,-1.3635516499698006,8.348773676620487,-4.515919087320521,-0.16205504681964228,-0.35774222368859077,-0.05374621453119664,-0.8188169677734375,8.473079675292968,-3.564966271972656,-0.5399862181933601,-0.7145191433927931,-0.4148820832603315,0.9883743555723528,0.13814268848991532,-0.05769190324298413,-0.026540067142282124
3,1470.0,0.36152445068359373,7.668627917480468,-5.212177014160156,-0.6604272597050299,0.12017457903044926,-0.35652679987304015,-0.9776421147900152,8.280052841531667,-3.927663317991506,-0.4238353637576714,-0.5217119447453956,-0.2840833570341877,-0.967257470703125,7.668627917480468,-5.212177014160156,-0.5399862181933601,0.12017457903044926,-0.26193261903975973,-1.3168857223737054,8.490266177694872,-4.628123564928668,-0.04177318362054422,-0.24964471079899223,0.0741212390489693,0.36152445068359373,7.668627917480468,-5.212177014160156,-0.6604272597050299,0.12017457903044926,-0.35652679987304015,0.9886717612783862,0.13595590122348272,-0.056877134961014,-0.028445261324712628
3,1480.0,-0.967257470703125,6.509834313964843,-5.987898352050781,-0.6131301692883897,0.5551745796229292,-0.26193261903975973,-0.9755651859726372,7.926009136018303,-4.339710324803361,-0.46169432486381506,-0.3063346398717307,-0.27965320943530214,-0.967257470703125,7.668627917480468,-5.585672473144531,-0.5399862181933601,0.12017457903044926,-0.26193261903975973,-1.2644467121097256,8.677646577719585,-4.688807013622521,0.10099514820322668,-0.14926515950615887,0.22224361508342835,-0.967257470703125,6.509834313964843,-5.987898352050781,-0.6131301692883897,0.5551745796229292,-0.26193261903975973,0.9890684008954375,0.1340483297750694,-0.0538428836416927,-0.029592017771754273
3,1490.0,-1.407790576171875,6.150704064941406,-6.344634399414062,-0.17013629425929458,0.43060336965234147,-0.22609341531560134,-1.0620102640124847,7.570948121802925,-4.740695139725501,-0.403382718742911,-0.15894703796691628,-0.268941250611362,-1.407790576171875,7.668627917480468,-5.987898352050781,-0.17013629425929458,0.12017457903044926,-0.22609341531560134,-1.1993231219978409,8.90851496612709,-4.680486801982754,0.260720348394734,-0.06500022725374098,0.38870022580890434,-1.407790576171875,6.150704064941406,-6.344634399414062,-0.17013629425929458,0.43060336965234147,-0.22609341531560134,0.9891326697721322,0.1343012305147229,-0.05145731590127946,-0.03052680317231656
3,1500.0,-2.2768857788085937,8.310273962402343,-5.585672473144531,0.40169219043991633,-0.1005895866607419,0.17773047497407907,-1.3049853669717066,7.718813289922808,-4.909690606409308,-0.24236773690634553,-0.1472755477056814,-0.17960690549427377,-1.407790576171875,8.310273962402343,-5.987898352050781,0.40169219043991633,0.43060336965234147,0.17773047497407907,-1.1101726772262903,9.162818049108763,-4.596268589486336,0.426281386683825,-0.0006957687427237525,0.5666387294234579,-2.2768857788085937,8.310273962402343,-5.585672473144531,0.40169219043991633,-0.1005895866607419,0.17773047497407907,0.9887352544334037,0.13718558767312117,-0.05197933980261556,-0.029679275748857346
3,1510.0,-2.501940734863281,12.181698046874999,-6.653486413574218,0.6773476272625322,-0.4075543650267675,0.31802297133667673,-1.5443764405500215,8.611390241313247,-5.25844976784229,-0.05842466407256999,-0.19933131116989863,-0.08008093012808366,-1.407790576171875,9.394847314453125,-5.585672473144531,0.6773476272625322,0.43060336965234147,0.31802297133667673,-0.9885251180304885,9.403718171833445,-4.4430604462687775,0.5827411963671205,0.04314446782342259,0.7441486397115019,-2.501940734863281,12.181698046874999,-6.653486413574218,0.6773476272625322,-0.4075543650267675,0.31802297133667673,0.9880703917808338,0.14135115467246198,-0.0541976549016912,-0.02827306424830277
3,1520.0,-0.8571241943359375,9.969455712890625,-5.157110375976562,1.0197519156308854,0.5306600313506423,0.8564104146427138,-1.4069259913072047,8.883003335628722,-5.2381818894691445,0.15721065186812108,-0.05333304266579045,0.10721733882607584,-0.8571241943359375,9.739612353515625,-5.157110375976562,1.0197519156308854,0.5306600313506423,0.8564104146427138,-0.8344768634305495,9.590084023070677,-4.242652034060017,0.713966510652765,0.06648798850222948,0.9048957028631543,-0.8571241943359375,9.969455712890625,-5.157110375976562,1.0197519156308854,0.5306600313506423,0.8564104146427138,0.9874456738286512,0.14719112109113452,-0.05230949231461872,-0.023442101501419805
3,1530.0,0.3327940307617187,9.394847314453125,-3.0789433349609374,1.5837197571340913,0.7802021450136485,1.2928759588819065,-1.0589819868934203,8.985372131393603,-4.806334178567504,0.4425124729213151,0.11337399487009736,0.344349062837242,-0.8571241943359375,9.969455712890625,-3.0789433349609374,1.5837197571340913,0.5306600313506423,1.2928759588819065,-0.6563411258248503,9.688162114663434,-4.030419786804444,0.8051079244605831,0.06927678097202052,1.0296145253237758,0.3327940307617187,9.394847314453125,-3.0789433349609374,1.5837197571340913,0.7802021450136485,1.2928759588819065,0.9864225630452249,0.15570717309586635,-0.04966227719336026,-0.016107811327202917
3,1540.0,1.3431471313476562,9.739612353515625,-2.408566870117187,1.8202052092172925,0.8225696795277092,2.470373663395333,-0.578556163245205,9.136220175818009,-4.32678071687744,0.7180510201805106,0.25521313180161975,0.7695539829488602,-0.8571241943359375,9.969455712890625,-2.408566870117187,1.5837197571340913,0.5306600313506423,2.046298624532894,-0.4634336617235914,9.67139208691391,-3.8480786130877678,0.8452666672850586,0.054281066799977525,1.0990649051274624,1.3431471313476562,9.739612353515625,-2.408566870117187,1.8202052092172925,0.8225696795277092,2.470373663395333,0.9851205681401507,0.16505365119008397,-0.047818448813139125,-0.0028555926099326653
3,1550.0,-1.6112977172851561,14.681244580078124,-2.0159177978515626,1.772241962597601,-0.12537059741424916,2.3376753477475196,-0.7851044740531952,10.245225056670034,-3.8646081330722653,0.9288892086639287,0.17909638595844596,1.0831782559085923,0.3327940307617187,10.24000050048828,-2.0159177978515626,1.5837197571340913,-0.12537059741424916,2.046298624532894,-0.2586486617789608,9.518229939776123,-3.7327398785651704,0.830359831303117,0.029676438108915872,1.0988418256751549,-1.6112977172851561,14.681244580078124,-2.0159177978515626,1.772241962597601,-0.12537059741424916,2.3376753477475196,0.9833948477772866,0.17414673274945497,-0.05027984486902076,0.00891212868647536
3,1560.0,-1.8243816650390623,14.080299963378906,-1.4891934326171874,1.2501087306460148,-0.9925727425463936,2.046298624532894,-0.9929599122503687,11.012240038011807,-3.3895251929812495,0.993133113060346,-0.05523743974252196,1.2758023296334526,0.42377369384765623,10.24000050048828,-2.0159177978515626,1.2501087306460148,-0.2200980094881399,2.046298624532894,-0.040111243689334795,9.222942462003413,-3.708542061179952,0.7648141852781654,0.007601272024858895,1.0241117126892987,-1.8243816650390623,14.080299963378906,-1.4891934326171874,1.2501087306460148,-0.9925727425463936,2.046298624532894,0.9817206881461402,0.18074419072373246,-0.05674036595673458,0.01834554050955713
3,1570.0,0.42377369384765623,10.24000050048828,-1.5801730957031248,0.6756156211345989,-1.1030214410122943,1.7705099564696678,-0.7096131910307638,10.857792130507102,-3.027654773525625,0.9296296146751966,-0.26479423999647644,1.3747438550006958,0.42377369384765623,10.24000050048828,-2.0159177978515626,0.6756156211345989,-0.2200980094881399,1.7705099564696678,0.1897720978277217,8.812402845381104,-3.78194715056254,0.6607877302476444,-0.0012211354504701871,0.8814684291187939,0.42377369384765623,10.24000050048828,-1.5801730957031248,0.6756156211345989,-1.1030214410122943,1.7705099564696678,0.9804000350224961,0.1845871640982262,-0.06370498149452113,0.02617299201172029
3,1580.0,1.9105729248046874,7.055712292480468,-3.153163586425781,-0.0604869832370554,-0.2200980094881399,0.8541454835523395,-0.18557596786367359,10.097376162901776,-3.0527565361056563,0.7316062950927462,-0.25585499389480915,1.2706241807110248,0.42377369384765623,7.055712292480468,-3.153163586425781,-0.05129402763494786,-0.2200980094881399,0.8541454835523395,0.4211162889246612,8.34764389622114,-3.939772878775715,0.5349178342767409,0.0073327969579991305,0.6876892338919969,1.9105729248046874,7.055712292480468,-3.153163586425781,-0.0604869832370554,-0.2200980094881399,0.8541454835523395,0.9800785489678143,0.18495560384019552,-0.06580690991042555,0.03011499741480424
3,1590.0,1.1156979736328125,5.032611889648437,-5.123591552734375,-0.20864012279565802,0.6151286378975435,-0.2287580401278064,0.07467882043562366,9.08442330825111,-3.4669235394314004,0.5435570115150654,-0.08165826753633865,0.9707477365432586,1.1156979736328125,5.181052392578125,-5.123591552734375,-0.05129402763494786,0.0063950995492922,-0.21117151636725287,0.6436235553932185,7.905504528588493,-4.1524879304142015,0.4038279834952567,0.030406863732665428,0.4662423974220592,1.1156979736328125,5.032611889648437,-5.123591552734375,-0.20864012279565802,0.6151286378975435,-0.2287580401278064,0.980316110438752,0.18483871712294167,-0.06282294209803074,0.029466085806043877
3,1600.0,-0.948103857421875,3.9169139160156248,-6.45476767578125,-0.05129402763494786,0.05595712105630675,-0.8758621757718109,-0.1298777151358761,8.050921429804013,-4.064492366701371,0.42458680368506274,-0.05413518981780957,0.6014257540802448,1.1156979736328125,5.106832141113281,-5.123591552734375,-0.0604869832370554,0.05595712105630675,-0.2287580401278064,0.8521415212139931,7.555074861990796,-4.384399422627953,0.28048582597258415,0.06235115213566637,0.24165312702672714,-0.948103857421875,3.9169139160156248,-6.45476767578125,-0.05129402763494786,0.05595712105630675,-0.8758621757718109,0.9803246992968391,0.18581237542088888,-0.06168988747951037,0.0251317104824566
3,1610.0,1.1420341918945311,5.181052392578125,-5.8083332275390624,0.05728943346240929,0.0063950995492922,-0.21117151636725287,0.12450466627020536,7.4769476223588365,-4.41326053886891,0.3511273296405321,-0.042029131944389224,0.43890629999074526,1.1156979736328125,5.106832141113281,-5.123591552734375,-0.09752526812670606,0.17693108753041753,-0.22915773384963717,1.0427276809441615,7.341726613001327,-4.606083532216889,0.17314904741714637,0.09838369133205255,0.03383381501670422,1.1420341918945311,5.181052392578125,-5.8083332275390624,0.05728943346240929,0.0063950995492922,-0.21117151636725287,0.980110687865231,0.18708189183275373,-0.06166618072265855,0.024097457038080194
3,1620.0,0.9265560424804687,5.106832141113281,-4.357447021484375,-0.09752526812670606,0.21263706001396565,-0.22915773384963717,0.28491494151225805,7.002924526109726,-4.402097835392003,0.2613968100870845,0.008904106447281755,0.3052934932226688,1.1420341918945311,5.181052392578125,-4.4005426513671875,-0.09752526812670606,0.17693108753041753,-0.8758621757718109,1.206841455420794,7.2822425424819075,-4.800630367754559,0.08649882122006741,0.1348444887025763,-0.14383766862330677,0.9265560424804687,5.106832141113281,-4.357447021484375,-0.09752526812670606,0.21263706001396565,-0.22915773384963717,0.9801063974931823,0.18757694551191276,-0.060597673475772974,0.023114088229489477
3,1630.0,1.6543933471679686,5.6407391113281244,-3.478775012207031,-0.28324961753740036,0.17693108753041753,-0.8843889751708672,0.5588106226434002,6.730487443153406,-4.217433270755009,0.1524675245621875,0.04250950266390891,0.0673569995439616,1.5729904907226562,5.6407391113281244,-4.4005426513671875,-0.28324961753740036,0.21263706001396565,-0.8843889751708672,1.3315804145868986,7.367718969933349,-4.959444625252279,0.02290242958434967,0.168279351821568,-0.2827522117465643,1.6543933471679686,5.6407391113281244,-3.478775012207031,-0.28324961753740036,0.17693108753041753,-0.8843889751708672,0.9803293147148038,0.18734073965545853,-0.059182911020939095,0.018848475249640922
3,1640.0,2.1643583007812497,7.024587670898437,-4.4005426513671875,-0.7666125584714025,0.6612266471486915,-1.5273629423559538,0.8799201582709701,6.789307488702412,-4.254055146877445,-0.031348492044530496,0.16625293156086543,-0.2515869888360215,1.5729904907226562,7.024587670898437,-4.4005426513671875,-0.28324961753740036,0.21263706001396565,-0.8843889751708672,1.4033923787066174,7.568620807267746,-5.072436876534893,-0.01771000156947699,0.19560702599346116,-0.3781803855927437,2.1643583007812497,7.024587670898437,-4.4005426513671875,-0.7666125584714025,0.6612266471486915,-1.5273629423559538,0.9811612421336013,0.18486915402821746,-0.05484520120952846,0.011748052094971009
3,1650.0,1.5729904907226562,9.76116016845703,-5.7508723876953125,-1.1207411960134581,1.1146125589453864,-1.4017258824604841,1.0185342247613074,7.383678024653335,-4.553418595041018,-0.24922703283831604,0.35592485703776966,-0.48161476756091404,1.5729904907226562,7.8721350585937495,-5.513846423339843,-0.28324961753740036,0.17693108753041753,-0.8843889751708672,1.4113182022281354,7.841895172628928,-5.122272389587163,-0.0396658341183246,0.21565459302117884,-0.4315365249409601,1.5729904907226562,9.76116016845703,-5.7508723876953125,-1.1207411960134581,1.1146125589453864,-1.4017258824604841,0.9823519363522859,0.1806115714099274,-0.04830214851261789,0.005570984366907968
3,1660.0,-0.2561795776367187,8.695740429687499,-8.010998754882811,0.3775773358894603,-0.095926493239383,-0.8676018388539751,0.7635914642817022,7.646090505660168,-5.244934627009377,-0.12386615909276077,0.26555458698233914,-0.5588121818195263,1.5729904907226562,8.032546569824218,-5.513846423339843,0.3775773358894603,-0.095926493239383,-0.8676018388539751,1.3473060324456005,8.14189863664555,-5.088494956065789,-0.05345651287705825,0.23113492286230722,-0.4528451948969473,-0.2561795776367187,8.695740429687499,-8.010998754882811,0.3775773358894603,-0.095926493239383,-0.8676018388539751,0.9818223322261652,0.18362679174443755,-0.04800511241136731,0.0012721941638753895
3,1670.0,1.0295067138671874,7.8721350585937495,-5.513846423339843,1.3789433403161306,-1.281018378467594,0.5319923437567449,0.8167745141987993,7.691299416246885,-5.29871698627547,0.17669574078901754,-0.04376000610764749,-0.3406512767042721,1.5729904907226562,8.695740429687499,-5.7508723876953125,0.3775773358894603,-0.095926493239383,0.25780245058084184,1.201888359746949,8.428822006446913,-4.9581048809162835,-0.0737339642575186,0.24754741851487044,-0.45948549234575464,1.0295067138671874,7.8721350585937495,-5.513846423339843,1.3789433403161306,-1.281018378467594,0.5319923437567449,0.9800096317350935,0.1911989865123184,-0.054908646023954885,0.0030182536217292833
3,1680.0,7.769184387207031,8.032546569824218,-5.353434912109375,1.2547718240673738,-1.0963598789817817,1.471805515021478,2.2072564888004456,7.7595488469623515,-5.309660571442251,0.3923109574446888,-0.25427998068247437,0.021840081640877917,1.0295067138671874,8.695740429687499,-5.513846423339843,0.3775773358894603,-0.095926493239383,0.25780245058084184,0.964277503045571,8.667635060775032,-4.732086427900837,-0.11219832288352032,0.26700682322364483,-0.4698502436502842,0.9265560424804687,8.032546569824218,-5.353434912109375,1.2547718240673738,-1.0963598789817817,-0.7033277191815318,0.9782431203233258,0.19765832181753837,-0.06228427850651691,0.00960489496456406
3,1690.0,2.530671154785156,16.36915675048828,-8.990227233886719,-0.3765114859645783,0.5651669226686982,0.25780245058084184,2.271939421997388,9.481470427667539,-6.045773903931145,0.23854646876283542,-0.09039060001223988,0.0690325554288707,1.0295067138671874,8.032546569824218,-5.353434912109375,-0.3136263403965383,0.5651669226686982,0.25780245058084184,0.637420840341987,8.826955162069336,-4.425710590498487,-0.1713483612360211,0.28234503394237853,-0.4948821501068995,2.530671154785156,7.8721350585937495,-8.990227233886719,-0.3765114859645783,0.5651669226686982,0.25780245058084184,0.9785783601792174,0.19663128523891668,-0.059944722336244226,0.011276565003417817
3,1700.0,-1.2378022583007813,8.8489693359375,-4.00310517578125,-0.46817457950443314,1.7427978584227348,-0.9382143963774099,1.5699910859377542,9.35497020932153,-5.637240158301166,0.09720225910938171,0.2762470916747551,-0.13241683493238543,-1.2378022583007813,8.647856396484375,-4.00310517578125,-0.3765114859645783,0.6137963254914409,-0.7033277191815318,0.25234416883281685,8.890907509998573,-4.071279092536003,-0.2452503888282948,0.27882595257401355,-0.5343175801680035,-1.2378022583007813,8.8489693359375,-4.00310517578125,-0.46817457950443314,1.7427978584227348,-0.9382143963774099,0.9793826084935923,0.1954502015772768,-0.05041847191600653,0.008179399326582598
3,1710.0,-2.588131994628906,7.793126403808594,-1.2904746948242187,-0.3136263403965383,1.383206740015659,-0.7033277191815318,0.7383664698244221,9.042601448218944,-4.767887065605777,0.01503653920819771,0.49763902134293586,-0.24659901178221472,-1.8626888916015625,8.647856396484375,-1.2904746948242187,-0.46817457950443314,0.6137963254914409,-0.7980551312554225,-0.1410486276628573,8.869362883790982,-3.718542247701812,-0.3249443388553297,0.2427903218940135,-0.5806334717336548,-2.588131994628906,7.793126403808594,-1.2904746948242187,-0.3136263403965383,1.383206740015659,-0.7033277191815318,0.9798722410399169,0.19492445140015152,-0.04266203262868077,0.005899191279370142
3,1720.0,-1.8626888916015625,8.647856396484375,-0.6200982299804687,-0.5347901998095602,0.6137963254914409,-1.147387444135509,0.2181553975392252,8.96365243787203,-3.9383292984807152,-0.09492880859535388,0.5208704821726369,-0.4267566982528736,-2.0829554443359375,8.590395556640624,-1.2904746948242187,-0.5347901998095602,0.6137963254914409,-0.7980551312554225,-0.49645165037713673,8.787821822256587,-3.420999169652838,-0.40202311486436343,0.16911084839813428,-0.6253526339833904,-1.8626888916015625,8.647856396484375,-0.6200982299804687,-0.5347901998095602,0.6137963254914409,-1.147387444135509,0.9803626669036933,0.19344071794416823,-0.038331054456950536,0.0006784150212879884
3,1730.0,-2.0829554443359375,8.590395556640624,-0.6464344482421874,-0.862272589229565,0.4147488520197212,-0.7980551312554225,-0.24206677083580738,8.889001061625748,-3.27995032843301,-0.24839756472219612,0.49964615614205377,-0.5010163848533834,-2.403778466796875,7.793126403808594,-1.2904746948242187,-0.7808683012166997,0.4147488520197212,-0.7033277191815318,-0.783614755831752,8.671958299723295,-3.2170140913620076,-0.46930861165037435,0.06217038464328867,-0.6624035587294251,-2.0829554443359375,8.590395556640624,-0.6464344482421874,-0.862272589229565,0.4147488520197212,-0.7980551312554225,0.9810917194174548,0.19027395447427897,-0.03528990091618668,-0.003079485760258419
3,1740.0,-2.5330653564453125,7.244854223632812,-1.8818425048828125,-0.8741301696438776,0.25726952561840083,-0.40155895919930606,-0.7002664879577084,8.560171694027161,-3.0003287637229707,-0.3735440857065324,0.45117083003732317,-0.48112489972256794,-2.0829554443359375,8.288726147460936,-1.8818425048828125,-0.7808683012166997,0.25726952561840083,-0.7980551312554225,-0.9887862102174667,8.543160057050477,-3.120970747835435,-0.5214469027633313,-0.06708572835095886,-0.6884097543541701,-2.5330653564453125,7.244854223632812,-1.8818425048828125,-0.8741301696438776,0.25726952561840083,-0.40155895919930606,0.9817887956293568,0.1869601320062116,-0.033334490901975336,-0.005047923650679613
3,1750.0,-2.403778466796875,7.738059765625,-2.6910826660156246,-0.7808683012166997,-0.3618560494974503,-0.5768912718424005,-1.0409688837255417,8.39574930834673,-2.9384795441815017,-0.4550089288085659,0.2885654541303685,-0.5002781741465345,-2.0829554443359375,8.288726147460936,-2.6910826660156246,-0.7808683012166997,-0.3618560494974503,-0.7980551312554225,-1.1127987874916567,8.417781518508999,-3.1255762913131777,-0.5559241754980936,-0.20382690680544596,-0.7010979563777611,-2.403778466796875,7.738059765625,-2.6910826660156246,-0.7808683012166997,-0.3618560494974503,-0.5768912718424005,0.9822677104173009,0.18412715006913208,-0.034297878145864436,-0.00842574825545997
3,1760.0,-0.8786720092773437,8.288726147460936,-4.967968444824218,-0.39742879074038817,-1.6378116408218546,-1.290477796550922,-1.0085095088359022,8.37434467616957,-3.344377324310045,-0.4434929011949304,-0.0967099648600761,-0.658318098627412,-1.687912170410156,8.202534887695313,-2.741360900878906,-0.501082695935166,-0.6439065858693584,-0.5768912718424005,-1.1695130218681085,8.305260296918606,-3.210638312030511,-0.5730866352103682,-0.33205004273621336,-0.6978420865531278,-0.8786720092773437,8.288726147460936,-4.967968444824218,-0.39742879074038817,-1.6378116408218546,-1.290477796550922,0.9820687388604916,0.18326347467641774,-0.0410758079520732,-0.01637891948737638
