activity,time_ms,ax,ay,az,gx,gy,gz,ax_ema,ay_ema,az_ema,gx_ema,gy_ema,gz_ema,ax_median,ay_median,az_median,gx_median,gy_median,gz_median,ax_lp,ay_lp,az_lp,gx_lp,gy_lp,gz_lp,ax_outlier,ay_outlier,az_outlier,gx_outlier,gy_outlier,gz_outlier,q0,q1,q2,q3
1,0.0,-0.74699091796875,8.820238916015624,-4.058171813964844,0.14082542132503867,0.18945482414778142,0.271525268363698,-0.74699091796875,8.820238916015624,-4.058171813964844,0.14082542132503867,0.18945482414778142,0.271525268363698,-0.6679822631835937,8.461108666992187,-4.058171813964844,0.14082542132503867,0.17173506914661762,0.271525268363698,-0.7432254309102864,8.695349900391328,-4.011176116029721,0.23680784985764586,0.26588167601897505,0.46243615559687146,-0.74699091796875,8.820238916015624,-4.058171813964844,0.14082542132503867,0.18945482414778142,0.271525268363698,0.9999971003219104,0.0017005551077417553,0.0010316595860476604,0.0013576224051391327
1,10.0,-0.6679822631835937,8.461108666992187,-4.070142822265625,0.2980382852451386,0.18852220546350965,0.4713721292790793,-0.7311891870117186,8.748412866210938,-4.060566015625,0.17226799410905866,0.18926830041092707,0.3114946405467743,-0.74699091796875,8.571241943359375,-4.070142822265625,0.2980382852451386,0.17173506914661762,0.4713721292790793,-0.7123424532526961,8.689929719586884,-3.9984328282977493,0.24681322148197785,0.2533682410204427,0.4792997788759128,-0.6679822631835937,8.461108666992187,-4.070142822265625,0.2980382852451386,0.18852220546350965,0.4713721292790793,0.9999822179300526,0.0041885720229940405,0.002053169766395007,0.0037153979613471066
1,20.0,-0.8188169677734375,8.571241943359375,-4.285620971679688,0.3487993879176454,0.17173506914661762,0.5258637066886732,-0.7487147431640624,8.712978681640626,-4.105577006835937,0.207574272870776,0.1857616541580652,0.3543684537751541,-0.74699091796875,8.643067993164061,-4.285620971679688,0.31908882126155874,0.18852220546350965,0.4713721292790793,-0.6669622839177253,8.682181766075125,-3.9805657469686877,0.2609117313214918,0.23406657734800226,0.5024040700333967,-0.8188169677734375,8.571241943359375,-4.285620971679688,0.3487993879176454,0.17173506914661762,0.5258637066886732,0.9999513291211682,0.006929569143266901,0.003007648685434828,0.006346220109848861
1,30.0,-0.8930372192382812,8.66940421142578,-4.548983154296875,0.3410719759622507,0.16787136316892026,0.47896630999386375,-0.7775792383789062,8.704263787597657,-4.194258236328125,0.23427381348907095,0.1821835959602362,0.379288025018896,-0.6679822631835937,8.643067993164061,-4.3071687866210935,0.31908882126155874,0.18852220546350965,0.4713721292790793,-0.6035975155400047,8.670619663714248,-3.9582149425649162,0.2801719888584585,0.20506323639180016,0.5321557983182257,-0.8930372192382812,8.66940421142578,-4.548983154296875,0.3410719759622507,0.16787136316892026,0.47896630999386375,0.9999075883315249,0.009630301989682573,0.003952186606523564,0.008743700683826402
1,40.0,-0.6512228515624999,8.643067993164061,-4.570530969238281,0.31908882126155874,0.22835834640597566,0.4168805518694853,-0.752307961015625,8.69202462871094,-4.269512782910156,0.25123681504356854,0.19141854604938408,0.3868065303890139,-0.6512228515624999,8.643067993164061,-4.3071687866210935,0.31908882126155874,0.22835834640597566,0.42554058250915183,-0.5200359308368354,8.652831566684942,-3.935269190486167,0.30622437489343235,0.16294564602407946,0.5686808046598268,-0.6512228515624999,8.643067993164061,-4.570530969238281,0.31908882126155874,0.22835834640597566,0.4168805518694853,0.9998532359497457,0.012219686372149192,0.0051747164323577965,0.010835503478523327
1,50.0,-0.38786066894531246,8.686163623046875,-4.3071687866210935,0.2727243495291903,0.43992955649505927,0.34693415054910187,-0.6794185026015626,8.690852427578127,-4.277043983652344,0.2555343219406929,0.24112074813851914,0.3788320544210315,-0.38786066894531246,8.66940421142578,-4.3071687866210935,0.2727243495291903,0.3529295563765633,0.42554058250915183,-0.41582510629950903,8.62599108209143,-3.9205032241024926,0.34117198307513297,0.10433893991764186,0.6114096271184447,-0.38786066894531246,8.686163623046875,-4.3071687866210935,0.2727243495291903,0.43992955649505927,0.34693415054910187,0.9997870093157218,0.014565922718588534,0.0074271986571243405,0.01259391198113129
1,60.0,-0.18435352783203124,8.489839086914062,-3.6343981201171873,0.19438438005036085,0.4904241966863456,0.42554058250915183,-0.5804055076476563,8.650649759445315,-4.148514810945313,0.2433043335626265,0.29098143784808445,0.3881737600386556,-0.29927520751953124,8.686163623046875,-3.6343981201171873,0.2727243495291903,0.3529295563765633,0.42554058250915183,-0.29169413136664035,8.587252242337401,-3.927558194126001,0.387081525724689,0.027118677184544783,0.658268344265182,-0.18435352783203124,8.489839086914062,-3.6343981201171873,0.19438438005036085,0.4904241966863456,0.42554058250915183,0.9997056093012743,0.016521032300476322,0.0098998273328783,0.014756139131694053
1,70.0,-0.1197100830078125,8.717288244628906,-3.342305517578125,0.270459418438816,0.3529295563765633,0.6435068921475277,-0.48826642271968757,8.663977456482034,-3.987272952271876,0.24873535053786444,0.30337106155378024,0.43924038646043007,-0.18435352783203124,8.717288244628906,-3.4859576171874997,0.2727243495291903,0.3529295563765633,0.6435068921475277,-0.14849056405920635,8.533841171129856,-3.972371590786881,0.4452369464140436,-0.06800013447875256,0.705144269729874,-0.1197100830078125,8.717288244628906,-3.342305517578125,0.270459418438816,0.3529295563765633,0.6435068921475277,0.9995917462787426,0.018877145054850695,0.011665866696727874,0.017997269798683217
1,80.0,-0.29927520751953124,8.896853369140624,-3.4859576171874997,0.37877641705495263,0.08060490056920377,0.8766615632154725,-0.4504681796796563,8.710552639013752,-3.8870098852550012,0.27474356384128207,0.258817829356865,0.5267246218114385,-0.1197100830078125,8.717288244628906,-3.4859576171874997,0.37877641705495263,0.08060490056920377,0.8766615632154725,0.01320696684731984,8.463495977419278,-4.069194072087576,0.5155044341647447,-0.17644596730449016,0.746211686863019,-0.29927520751953124,8.896853369140624,-3.4859576171874997,0.37877641705495263,0.08060490056920377,0.8766615632154725,0.999438730838531,0.02181099965074061,0.012079249689683312,0.02237398759801781
1,90.0,0.047884033203124995,8.724470849609375,-3.2154128295898436,0.5176033697708374,-0.22342879050339626,1.0376049018726594,-0.3507977371031001,8.713336281132877,-3.75269047412197,0.32331552502719313,0.16236850538481273,0.6289006778236828,0.047884033203124995,8.717288244628906,-3.4859576171874997,0.5176033697708374,-0.22342879050339626,1.0376049018726594,0.19233882067860464,8.37575035310566,-4.227297864571214,0.5961685367830787,-0.2899916555146252,0.7751534296904022,0.047884033203124995,8.724470849609375,-3.2154128295898436,0.5176033697708374,-0.22342879050339626,1.0376049018726594,0.9992367582903101,0.025483023258122642,0.010932156295123261,0.027513712323812792
1,100.0,0.2753331909179687,8.310273962402343,-3.6750995483398436,0.647370598125225,-0.4709724355572485,1.1409923445862167,-0.2255715514988863,8.63272381738677,-3.737172288965545,0.38812653964679955,0.03570031719640049,0.7313190111761896,0.22744915771484372,8.310273962402343,-3.6750995483398436,0.647370598125225,-0.4709724355572485,1.0376049018726594,0.386372009951487,8.273075887868313,-4.448948546254204,0.6842154023921168,-0.3979667718794659,0.78672683883399,0.2753331909179687,8.310273962402343,-3.6750995483398436,0.647370598125225,-0.4709724355572485,1.1409923445862167,0.998969124147196,0.02984193264322259,0.008526080715549148,0.03312784333960375
1,110.0,0.22744915771484372,8.09479581298828,-3.7158009765625,0.726509955047716,-0.8332281787765295,1.1019555910874124,-0.1349674096561403,8.525138216507072,-3.732898026484936,0.4558032227269828,-0.1380853819981855,0.8054463271584341,0.2753331909179687,8.09479581298828,-3.7158009765625,0.726509955047716,-0.8332281787765295,1.0376049018726594,0.5909514195348129,8.160519390344971,-4.72814154378345,0.7757566522606714,-0.4889380667089177,0.7780653384894645,0.22744915771484372,8.09479581298828,-3.7158009765625,0.726509955047716,-0.8332281787765295,1.1019555910874124,0.9986488814983566,0.03465207518354329,0.004332274396948333,0.038482159062408865
1,120.0,0.469263525390625,7.465120776367187,-4.333505004882812,0.8967794805476208,-1.1347304762775348,0.9150321605112256,-0.014121222646787238,8.313134728479096,-3.8530194221645115,0.5439984742911105,-0.3374144008540554,0.8273634938289924,0.469263525390625,7.900865478515625,-4.333505004882812,0.8967794805476208,-1.1347304762775348,0.9150321605112256,0.7996195435179583,8.043888961042875,-5.050037215781447,0.8663761602153989,-0.5526515594358178,0.7493022608588226,0.469263525390625,7.465120776367187,-4.333505004882812,0.8967794805476208,-0.11098162342834172,0.9150321605112256,0.998265520378322,0.040363102560216677,-0.0013380592182552615,0.042836670891185265
1,130.0,0.8762778076171874,7.273584643554687,-5.504269616699219,1.1356630949618065,-1.394797857948751,0.8877197561861235,0.1639585834060077,8.105224711494214,-4.183269461071453,0.6623313984252497,-0.5488910922729946,0.8394347463004188,0.8762778076171874,7.900865478515625,-5.504269616699219,1.0745099555217,-1.1347304762775348,0.8877197561861235,1.0032645138406717,7.9271894692621165,-5.391656170009478,0.9515220811789916,-0.5822715933645726,0.7033839289319912,0.8762778076171874,7.273584643554687,-5.504269616699219,1.1356630949618065,-0.15681317019826915,0.8877197561861235,0.9977395205143752,0.04731477979892883,-0.008309166980065001,0.04699062204760578
1,140.0,1.8746598999023436,7.900865478515625,-6.619967590332031,1.1968162344019133,-1.1597779495122627,0.7939249627965046,0.5060988467052749,8.064352864898497,-4.6706090869235695,0.7692283656205825,-0.6710684637208483,0.830332789599636,1.5586252807617187,7.465120776367187,-6.619967590332031,1.1356630949618065,-1.1347304762775348,0.7939249627965046,1.1906530516284717,7.8105101165083495,-5.725124966573169,1.0271804787447634,-0.5764851745706349,0.6454780530099961,1.0558429321289062,7.900865478515625,-6.619967590332031,1.1968162344019133,-0.1584119450855922,0.7939249627965046,0.9971238157475257,0.05449954537180707,-0.014183462334734599,0.05072203682385055
1,150.0,2.2864625854492187,7.987056738281249,-7.357381701660156,1.0745099555217,-0.567165391277852,0.42181010777206474,0.8621715944540638,8.048893639575049,-5.207963609870887,0.830284683600806,-0.650287849232249,0.7486282532341217,1.707065783691406,7.2903440551757805,-7.357381701660156,1.1395268009395039,-0.567165391277852,0.42181010777206474,1.351322329645718,7.690388186869089,-6.0236464490573445,1.090495163610781,-0.540214231373672,0.5823419778140005,1.2665326782226562,7.987056738281249,-7.357381701660156,1.0745099555217,-0.567165391277852,0.42181010777206474,0.9966010029507253,0.06093549342397344,-0.017079549331644857,0.052740833833123925
1,160.0,1.5586252807617187,7.2903440551757805,-7.644685900878906,1.1395268009395039,-0.22689280275926285,0.2235620217440065,1.0014623317155948,7.897183722695195,-5.695308068072491,0.8921331070685455,-0.5656088399376518,0.6436150069360987,1.8746598999023436,7.599196069335937,-7.357381701660156,1.1968162344019133,-0.22689280275926285,0.2235620217440065,1.4792684452478506,7.562268326763908,-6.267858349243559,1.139692748199526,-0.48290133773048804,0.5212704096695627,1.5586252807617187,7.2903440551757805,-7.644685900878906,1.1395268009395039,-0.22689280275926285,0.2235620217440065,0.9960897354630759,0.06762994150817675,-0.018145323579524593,0.05387185859885122
1,170.0,1.707065783691406,6.758831286621094,-7.498639599609374,1.353895867081403,-0.15681317019826915,0.13656202162551054,1.1425830221107571,7.669513235480375,-6.0559743743798675,0.9844856590711171,-0.4838497059897753,0.5422044098739811,1.85790048828125,7.599196069335937,-7.357381701660156,1.1395268009395039,-0.15681317019826915,0.2235620217440065,1.5739437020052756,7.421430014492116,-6.449883211728336,1.1735954098796222,-0.4152633272526585,0.4684833411161359,1.707065783691406,6.758831286621094,-7.498639599609374,1.353895867081403,-0.15681317019826915,0.13656202162551054,0.9954814000516335,0.07537004338674476,-0.01880573632626855,0.05461211397068223
1,180.0,2.0829554443359375,7.599196069335937,-7.060500695800781,1.3777442591506384,0.03317457891195329,0.1724012253496689,1.3306575065557933,7.655449802251487,-6.25687963866405,1.0631373790870213,-0.3804448490094296,0.46824377296911873,1.707065783691406,7.491456994628906,-7.060500695800781,1.1395268009395039,-0.02211638594130219,0.2235620217440065,1.6384991454799205,7.26147429585001,-6.573908538236734,1.1916621557760276,-0.3465957690290171,0.4277698313282493,2.0829554443359375,7.599196069335937,-7.060500695800781,1.0745099555217,0.03317457891195329,0.1724012253496689,0.9948106184218531,0.08316404866291903,-0.018540945568852777,0.055604027035229237
1,190.0,1.85790048828125,7.781155395507812,-6.275202551269531,1.138993875977063,0.019718223610317616,0.23275497734611403,1.4361061029008846,7.680590920902754,-6.260544221185146,1.0783086784650298,-0.30041223448548016,0.42114601384451783,1.707065783691406,7.491456994628906,-6.275202551269531,1.138993875977063,-0.02211638594130219,0.23275497734611403,1.6786082737895442,7.0742975511138955,-6.653373498081692,1.1944557784559175,-0.28344422227593613,0.4000672036579415,1.85790048828125,7.781155395507812,-6.275202551269531,1.138993875977063,0.019718223610317616,0.23275497734611403,0.9941675546973558,0.08976896677425625,-0.018401897601681563,0.056866298947790286
1,200.0,1.4604630126953124,7.491456994628906,-5.84185205078125,0.9727212876954657,-0.02211638594130219,0.3007029100573437,1.44097748485977,7.642764135647985,-6.176805787104367,1.057191200311117,-0.24475306477664457,0.397057393087083,1.5394716674804687,7.491456994628906,-6.275202551269531,1.1010229724031404,-0.02211638594130219,0.3007029100573437,1.7023068775785606,6.853413109979049,-6.705565367702902,1.1834232081291343,-0.22921524007698388,0.38385225970023346,1.4604630126953124,7.491456994628906,-5.84185205078125,0.9727212876954657,-0.02211638594130219,0.3007029100573437,0.9935355275583632,0.09555427409680028,-0.018509832096424258,0.05842877969734651
1,210.0,1.2665326782226562,6.9910688476562495,-5.973533142089844,0.928355284572251,-0.11098162342834172,0.3446692194587275,1.4060885235323473,7.512425078049638,-6.136151258101464,1.031424017163344,-0.21799877650698402,0.3865797583614119,1.4604630126953124,6.9910688476562495,-6.275202551269531,1.1010229724031404,-0.11098162342834172,0.3446692194587275,1.7186169946908127,6.597290197251276,-6.745568415824399,1.1597078672115477,-0.18448457952747038,0.37588945142964914,1.2665326782226562,6.9910688476562495,-5.973533142089844,0.928355284572251,-0.11098162342834172,0.3446692194587275,0.9928683829307463,0.10113825569308815,-0.019080970404055327,0.06016098387064604
1,220.0,1.5394716674804687,6.268019946289062,-6.442796667480469,1.1010229724031404,-0.1584119450855922,0.49495405886709426,1.4327651523219715,7.263544051697523,-6.1974803399772656,1.0453438082113033,-0.20608141022270568,0.4082546184625484,1.4604630126953124,6.268019946289062,-6.442796667480469,1.1010229724031404,-0.1584119450855922,0.45818223645866407,1.7351174385951122,6.309763850072044,-6.782403008662502,1.1230389122148872,-0.14786557374993742,0.3720461879139098,1.5394716674804687,6.268019946289062,-6.442796667480469,1.1010229724031404,-0.1584119450855922,0.49495405886709426,0.9920221517232434,0.10756610057547855,-0.019962764387895567,0.06263443569926894
1,230.0,1.0558429321289062,6.169857678222656,-6.672640026855468,1.1577794809031088,-0.2843154674622824,0.4695068919105357,1.3573807082833587,7.044806777002551,-6.292512277352906,1.0678309427496644,-0.22172822167062106,0.4205050731521459,1.5394716674804687,6.169857678222656,-6.672640026855468,1.1010229724031404,-0.16001071997291527,0.45818223645866407,1.7562509111556819,5.998209722454786,-6.818815605004967,1.0717054508313015,-0.11711371658954343,0.36813058459268955,1.0558429321289062,6.169857678222656,-6.672640026855468,1.1577794809031088,-0.2843154674622824,0.4695068919105357,0.9910906513402757,0.11431942574024939,-0.02137909718577425,0.06491012192138446
1,240.0,1.8100164550781248,5.590460876464843,-6.964732629394531,1.182027566694175,-0.31176110302799476,0.45818223645866407,1.447907857642312,6.7539375968950095,-6.426956347761231,1.0906702675385667,-0.23973479794209582,0.42804050581344955,1.8100164550781248,5.590460876464843,-6.964732629394531,1.1010229724031404,-0.16001071997291527,0.45818223645866407,1.7826854151119353,5.671619562930444,-6.853485602495027,1.0035275114504596,-0.09026923397917345,0.36060050013665135,1.8100164550781248,5.590460876464843,-6.964732629394531,1.182027566694175,-0.31176110302799476,0.45818223645866407,0.9900910983413068,0.12117560444820419,-0.0230293431956143,0.06712480334343927
1,250.0,2.023100402832031,5.42047255859375,-7.129932543945312,1.0972924976660534,-0.16001071997291527,0.4296707509680697,1.5629463666802557,6.487244589234758,-6.567551586998047,1.091994713564064,-0.22378998234825973,0.4283665548443736,1.9297265380859374,5.42047255859375,-7.129932543945312,1.0972924976660534,-0.16001071997291527,0.43793108788590546,1.8118691589749247,5.339622530544507,-6.883634822078252,0.9170118708824264,-0.06660026497131039,0.34688401996950985,2.023100402832031,5.42047255859375,-7.129932543945312,1.0972924976660534,-0.16001071997291527,0.4296707509680697,0.9891192009002715,0.12754909114614152,-0.02397110423000952,0.06928074711054646
1,260.0,2.0661960327148434,5.027823486328125,-7.134720947265625,0.976052068710722,-0.08220367545652682,0.43793108788590546,1.6635962998871732,6.195360368653432,-6.680985459051564,1.0688061845933956,-0.19547272096991317,0.43027946145268,2.023100402832031,5.027823486328125,-7.129932543945312,0.976052068710722,-0.08220367545652682,0.4296707509680697,1.840141348045719,5.0121605150417246,-6.907086684024711,0.8120990500553579,-0.046896099670077296,0.32538940491811863,2.0661960327148434,5.027823486328125,-7.134720947265625,0.976052068710722,-0.08220367545652682,0.43793108788590546,0.9881885153143724,0.13328286808078066,-0.024595716991810533,0.0715135370583531
1,270.0,1.9297265380859374,4.659116430664063,-7.204152795410156,0.8300306290018835,-0.005462480865020421,0.35186370645168125,1.7168223475269262,5.8881115810555595,-6.7856189263232825,1.0210510734750933,-0.15747067294893463,0.4145963104524803,2.023100402832031,4.659116430664063,-7.129932543945312,0.8300306290018835,-0.005462480865020421,0.35186370645168125,1.8648766021281336,4.699398478512328,-6.923532184782252,0.6904142935410247,-0.033032993667906636,0.2954656953728253,1.9297265380859374,4.659116430664063,-7.204152795410156,0.8300306290018835,-0.005462480865020421,0.35186370645168125,0.9873615903437077,0.13827400440959717,-0.02483362434154441,0.07335312345457341
1,280.0,2.2194249389648437,4.431667272949219,-7.105990527343749,0.6796125583529066,0.09925727425463936,0.33973966355614815,1.8173428658145097,5.596822719434291,-6.849693246527376,0.952763370450656,-0.10612508350821984,0.39962498107321387,2.020706201171875,4.431667272949219,-7.105990527343749,0.6796125583529066,0.09925727425463936,0.33973966355614815,1.885225509590464,4.411624178801058,-6.935025735209,0.5551977401446115,-0.02724601917418728,0.2573504624525098,2.2194249389648437,4.431667272949219,-7.105990527343749,0.6796125583529066,0.09925727425463936,0.33973966355614815,0.9866314480214274,0.14246685430462996,-0.024647802315278293,0.07519353057751495
1,290.0,2.020706201171875,4.185064501953125,-7.0461354858398435,0.41821286427558785,0.23861715193296523,0.23848392069235497,1.8580155328859826,5.314471075938058,-6.888981694389869,0.8458532692156424,-0.037176636419982825,0.3673967689970421,1.9297265380859374,4.185064501953125,-7.0461354858398435,0.41821286427558785,0.09925727425463936,0.23848392069235497,1.902201260910703,4.159130355297416,-6.945902698348504,0.41106049890451146,-0.03132550593963022,0.21205362153624047,2.020706201171875,4.185064501953125,-7.0461354858398435,0.41821286427558785,0.23861715193296523,0.23848392069235497,0.9861262409832181,0.1453327224646934,-0.023785991206059277,0.07660067393733323
1,300.0,1.3958195678710936,3.737348791503906,-6.816292126464844,0.2354196021583191,0.1261699848579107,0.10805053613491614,1.7655763398830049,4.999046619051227,-6.874443780804865,0.7237665358041778,-0.004507312164404118,0.3155275224246169,2.020706201171875,3.737348791503906,-6.8402341430664055,0.2354196021583191,0.09925727425463936,0.10805053613491614,1.9183538558945323,3.952124009747006,-6.962154080336742,0.26353835466669345,-0.04574928588060403,0.1611420707067855,1.3958195678710936,3.737348791503906,-6.816292126464844,0.2354196021583191,0.1261699848579107,0.10805053613491614,0.9857818055196317,0.14737451483749234,-0.02338616741843854,0.07725329414559456
1,310.0,1.656787548828125,3.385401147460937,-6.5601125488281244,0.049428790266404295,-0.005462480865020421,0.1003231241795214,1.7438185816720289,4.676317524733169,-6.811577534409517,0.5888989866966231,-0.004698345904527379,0.2724866427755978,1.9895815795898437,3.385401147460937,-6.8402341430664055,0.049428790266404295,-0.005462480865020421,0.1003231241795214,1.9360717281806323,3.8001335577367654,-6.9901185207820795,0.11848089515979367,-0.06916734485358007,0.10638792272085336,1.656787548828125,3.385401147460937,-6.5601125488281244,0.049428790266404295,-0.005462480865020421,0.1003231241795214,0.9855588950003729,0.14853442782468287,-0.023761319474516623,0.0777598092414598
1,320.0,2.042254016113281,3.181894006347656,-6.8402341430664055,-0.13562940294123874,-0.06608269534268607,0.09352833090839843,1.8035056685602795,4.3774328210560665,-6.817308856140896,0.44399330876905074,-0.016975215792159118,0.23669498040215795,1.7214309936523438,3.2537200561523436,-6.8402341430664055,-0.13562940294123874,-0.06608269534268607,0.09352833090839843,1.9556304741752368,3.7105777333264625,-7.034739019555528,-0.018519675055904017,-0.09864060925387799,0.04949365113593012,2.042254016113281,4.431667272949219,-6.8402341430664055,-0.13562940294123874,-0.06608269534268607,0.09352833090839843,0.9854685434224619,0.14878303438425877,-0.024571513147847557,0.07817671869456252
1,330.0,1.9895815795898437,3.105279553222656,-7.146691955566406,-0.23741807076747293,-0.2675283311453904,0.05555742733447599,1.8407208507661925,4.123002167489385,-6.883185476025998,0.30771103286174606,-0.06708583886280536,0.20046746978862157,1.9895815795898437,3.2537200561523436,-7.146691955566406,-0.23741807076747293,-0.2675283311453904,0.05555742733447599,1.9752375329650838,3.687088144220722,-7.098571589415108,-0.14255263328207401,-0.13039119898783003,-0.007827447374079604,1.9895815795898437,3.105279553222656,-7.146691955566406,-0.23741807076747293,-0.2675283311453904,0.05555742733447599,0.9854418475872629,0.14861544390808545,-0.026381843228004683,0.07824201686879703
1,340.0,1.7214309936523438,3.2537200561523436,-7.3837179199218745,-0.2960398166359848,-0.39996018431198305,-0.09379479338961894,1.816862879343423,3.9491457452219763,-6.983291964805174,0.18696086296219988,-0.1336607079526409,0.14161501715297348,2.042254016113281,3.2537200561523436,-7.146691955566406,-0.2960398166359848,-0.2675283311453904,-0.09379479338961894,1.9922612600182719,3.7283579407039418,-7.182511406839898,-0.2496089511089289,-0.16074549266182653,-0.06360393806531428,1.7214309936523438,3.2537200561523436,-7.3837179199218745,-0.2960398166359848,-0.39996018431198305,-0.09379479338961894,0.9854945512368491,0.14824707386174488,-0.02870865713512679,0.07745390615979018
1,350.0,2.3439234252929686,3.5960908935546874,-7.445967163085937,-0.4220765702532852,-0.310828484343723,-0.20024655463721203,1.9222749885333321,3.878534774888519,-7.075827004461327,0.06515337631910287,-0.16909426323085733,0.07324270279493639,2.3439234252929686,3.5960908935546874,-7.146691955566406,-0.4220765702532852,-0.2675283311453904,-0.19558346121585313,2.003698842242579,3.827951108922939,-7.287481342426512,-0.33654672052797435,-0.18710561802551667,-0.11564726865427696,2.3439234252929686,3.5960908935546874,-7.445967163085937,-0.4220765702532852,-0.310828484343723,-0.20024655463721203,0.9856899792135516,0.14721099590996092,-0.030633710914673012,0.07619555969203118
1,360.0,2.616862414550781,4.031835595703125,-7.146691955566406,-0.5926125582344106,-0.05635681477813752,-0.23688514580503192,2.0611924737368224,3.9091949390514404,-7.089999994682342,-0.06639981059159983,-0.14654677354031337,0.011217133074942723,2.3439234252929686,4.031835595703125,-7.146691955566406,-0.5926125582344106,-0.05635681477813752,-0.19691577362195567,2.0068557697090097,3.9752942840719987,-7.415392538757044,-0.40104767258907303,-0.2083174234304454,-0.16195572116636042,2.616862414550781,4.031835595703125,-7.146691955566406,-0.5926125582344106,-0.05635681477813752,-0.23688514580503192,0.986058391951615,0.14523583829140463,-0.031354108516105025,0.07491541107641589
1,370.0,2.6767174560546874,4.422090466308593,-6.0908490234374995,-0.9164977041579384,0.120041347789839,-0.19558346121585313,2.1842974702003954,4.011774044502872,-6.890169800433375,-0.23641938930486756,-0.09322914927428289,-0.030142985783216454,2.3439234252929686,4.364629626464843,-7.146691955566406,-0.7792695263293766,-0.05635681477813752,-0.20024655463721203,2.001609753779647,4.157686505714816,-7.56768557032508,-0.4420737960146248,-0.2237834676075376,-0.20106826713486528,2.6767174560546874,4.422090466308593,-6.0908490234374995,-0.9164977041579384,0.120041347789839,-0.19558346121585313,0.9866642156497695,0.14159109141186452,-0.03134858519137158,0.07391180281606914
1,380.0,2.269703173828125,4.364629626464843,-5.899312890625,-1.224395101208236,0.1354961717006285,-0.19691577362195567,2.2013786109259414,4.082345160895266,-6.691998418471701,-0.43401453168554127,-0.0474840850793006,-0.0634975433509643,2.269703173828125,4.422090466308593,-7.146691955566406,-0.7792695263293766,-0.05635681477813752,-0.23688514580503192,1.9927013611547906,4.36242491905013,-7.740435994811403,-0.4612293382870859,-0.2316979796743738,-0.23200285392524506,2.269703173828125,4.364629626464843,-5.899312890625,-1.224395101208236,0.1354961717006285,-0.19691577362195567,0.9874691711368245,0.13643723125116575,-0.03133550110603267,0.07285330708555718
1,390.0,0.47165772705078124,4.534617944335937,-8.44674345703125,-0.7792695263293766,-0.47257121044457157,-0.44006278773566954,1.8554344341509095,4.172799717583401,-7.042947426183611,-0.5030655306143084,-0.1325015101523548,-0.13881059222790537,2.269703173828125,4.534617944335937,-8.44674345703125,-0.7792695263293766,-0.47257121044457157,-0.2610000003554879,1.9889122315447438,4.577779792648977,-7.919264144895069,-0.4645649136429472,-0.22788204227904427,-0.2540273165587089,0.47165772705078124,4.534617944335937,-8.44674345703125,-0.7792695263293766,-0.47257121044457157,-0.44006278773566954,0.9879422005917694,0.13380048466432592,-0.03374212496974229,0.07020760354840316
1,400.0,-0.6584054565429687,6.574477758789062,-11.324573852539062,0.263664625167693,-1.1325987764277707,-0.7526232782073258,1.352666456012134,4.653135325824533,-7.899272711454701,-0.3497194994579081,-0.332520963407438,-0.26157312942378946,2.269703173828125,5.580884069824219,-8.44674345703125,-0.010125574286379318,-0.47257121044457157,-0.2610000003554879,1.9966631404071757,4.793742797800228,-8.082320307493067,-0.46266248597458703,-0.20700760815971442,-0.26708418131102013,2.023100402832031,6.574477758789062,-11.324573852539062,0.263664625167693,0.06062021447766565,-0.19691577362195567,0.9876858888344837,0.13659880435707278,-0.03869460656776228,0.06572730838867448
1,410.0,3.2800562744140622,7.165845568847656,-10.105925207519531,0.2689938747921032,-0.951404289197825,-0.2610000003554879,1.7381444196925198,5.155677374429158,-8.340603210667668,-0.22597682460790583,-0.45629762856551537,-0.2614585036101292,2.0973206542968748,5.580884069824219,-8.44674345703125,-0.010125574286379318,-0.47257121044457157,-0.2610000003554879,2.011883036034889,5.006156029672665,-8.213534757384963,-0.4672202467984513,-0.16635374166821404,-0.27294128651038235,3.2800562744140622,7.165845568847656,-10.105925207519531,0.2689938747921032,0.02491424199411753,-0.2610000003554879,0.9872484236960528,0.1392017525776266,-0.04344994320040603,0.06383983415437239
1,420.0,3.912125512695312,5.580884069824219,-7.311891870117187,-0.010125574286379318,0.16054364493535628,-0.1325650844072029,2.1729406382930785,5.240718713508171,-8.134860942557573,-0.18280657454360053,-0.3329293738653411,-0.23567981976954394,2.0973206542968748,5.580884069824219,-7.311891870117187,-0.010125574286379318,0.16054364493535628,-0.2610000003554879,2.021213303768491,5.223139305240818,-8.313382017569877,-0.4863135571268815,-0.10888568746002923,-0.2755259151784687,3.912125512695312,5.580884069824219,-7.311891870117187,-0.010125574286379318,0.16054364493535628,-0.1325650844072029,0.9871905690090474,0.13998113821232847,-0.04302886597111184,0.06331333270025997
1,430.0,2.0973206542968748,3.5003228271484375,-5.57370146484375,-0.4226094952157262,0.40195865292113686,-0.23222205238367302,2.157816641493838,4.892639536236224,-7.622629047014809,-0.23076715867802566,-0.1859517685080455,-0.23498826629236977,2.0973206542968748,3.5003228271484375,-7.311891870117187,-0.4226094952157262,0.16054364493535628,-0.23222205238367302,2.0132582205447163,5.465086174185386,-8.393679478654187,-0.522346389104897,-0.042059057817763035,-0.27966979771308625,2.0973206542968748,3.5003228271484375,-5.57370146484375,-0.4226094952157262,0.40195865292113686,-0.23222205238367302,0.9875004577000853,0.13869951679531928,-0.041420113934213895,0.06236717281185361
1,440.0,1.1420341918945311,2.346317626953125,-6.536170532226562,-0.6324486991768765,0.33067993919465083,-0.2776539054317697,1.9546601515739768,4.383375154379605,-7.40533734405716,-0.3111034667777959,-0.08262542696750626,-0.24352139412024978,2.023100402832031,3.5003228271484375,-7.311891870117187,-0.5459816240208216,0.16054364493535628,-0.1508177643708077,1.9849641793255532,5.753208272850674,-8.460957356570036,-0.5734006260750221,0.026438387181367845,-0.28981328371038706,1.1420341918945311,5.971138940429687,-6.536170532226562,-0.6324486991768765,0.33067993919465083,-0.2776539054317697,0.987947013330516,0.1364480749088017,-0.040126552747640015,0.06109403792176424
1,450.0,1.177947216796875,3.220201232910156,-8.252813122558594,-0.5954104142872259,0.06062021447766565,-0.1508177643708077,1.7993175646185566,4.150740370085716,-7.574832499757447,-0.3679648562796819,-0.053976298678471875,-0.2249806681703614,2.023100402832031,3.5003228271484375,-8.252813122558594,-0.5954104142872259,0.15707963267948966,-0.1508177643708077,1.936553569407653,6.0931747791561595,-8.504764798073944,-0.6356429561941291,0.09152592653806095,-0.30971960136785903,1.177947216796875,6.574477758789062,-8.252813122558594,-0.5954104142872259,0.06062021447766565,-0.1508177643708077,0.9882690180647326,0.13445480868458104,-0.04018309406356309,0.06026251991445977
1,460.0,2.023100402832031,5.971138940429687,-9.746794958496093,-0.5459816240208216,0.02491424199411753,0.04236753451406083,1.8440741322612515,4.51482008415451,-8.009224991505176,-0.40356820982790986,-0.03819819054395399,-0.17151102763347695,2.023100402832031,5.971138940429687,-9.746794958496093,-0.6324486991768765,0.15707963267948966,-0.1508177643708077,1.8646578055261465,6.465528035765032,-8.49980543351836,-0.7047111460307734,0.15040202217034315,-0.3422546521980859,2.023100402832031,5.971138940429687,-9.746794958496093,-0.5459816240208216,0.02491424199411753,0.04236753451406083,0.9884892189374728,0.13267752789555778,-0.04051474618474031,0.06036797973673633
1,470.0,2.73896669921875,9.4618849609375,-11.238382592773437,-0.6892052076768448,0.15707963267948966,-0.07660796335089615,2.0230526456527516,5.504233059511108,-8.65505651175883,-0.4606956093976969,0.0008573741007347375,-0.1525304147769608,2.023100402832031,8.492233288574218,-9.746794958496093,-0.6892052076768448,0.15707963267948966,-0.1508177643708077,1.7619887468710664,6.830562134158096,-8.418125645247976,-0.7757229331363386,0.20085026634856384,-0.38845950280982894,2.73896669921875,9.4618849609375,-11.238382592773437,-0.6892052076768448,0.15707963267948966,-0.07660796335089615,0.9888630293177616,0.1301826103158649,-0.040123457856341076,0.05993751203960727
1,480.0,2.4253262817382812,10.769119067382812,-10.560823522949217,-0.9923062800651731,0.5495788675172985,-0.3598575808882965,2.1035073728698577,6.55721026108545,-9.036209913996908,-0.5670177435311922,0.11060167278404749,-0.19399584799922795,2.023100402832031,8.492233288574218,-9.746794958496093,-0.9923062800651731,0.4012924967180856,-0.3598575808882965,1.6223810029643384,7.1462321360755885,-8.243192151945005,-0.8430087941323928,0.24037850315607937,-0.446675744097053,2.4253262817382812,10.769119067382812,-10.560823522949217,-0.9923062800651731,0.5495788675172985,-0.3598575808882965,0.9895827474599351,0.1261365633607272,-0.03764871639682873,0.05829345989785349
1,490.0,1.62805712890625,8.492233288574218,-8.0062103515625,-1.1184762649230837,0.8192388985124529,-0.375845329761527,2.0084173240771364,6.944214866583204,-8.830210001510027,-0.6773094478095705,0.25232911792972856,-0.23036574435168777,1.62805712890625,8.492233288574218,-8.0062103515625,-1.1184762649230837,0.4012924967180856,-0.375845329761527,1.4454155060912588,7.387190652746647,-7.977952147642032,-0.9006605470016308,0.2671197374104846,-0.5126946970964952,1.62805712890625,8.492233288574218,-8.0062103515625,-1.1184762649230837,0.8192388985124529,-0.375845329761527,0.9904051371370198,0.1213926306382565,-0.033837046501868515,0.056714617545701965
1,500.0,0.7972691528320313,7.513004809570312,-6.476315490722656,-1.1571133247000576,0.4012924967180856,-0.5862174586851183,1.7661876898281155,7.057972855180626,-8.359431099352554,-0.7732702231876679,0.2821217936874,-0.3015360872183739,1.3431471313476562,7.898471276855468,-7.134720947265625,-1.1571133247000576,0.4012924967180856,-0.5862174586851183,1.236447174877362,7.550839440614922,-7.641325328799925,-0.9436986274514395,0.2816503457458091,-0.5806119196919853,0.7972691528320313,7.513004809570312,-6.476315490722656,-1.1571133247000576,0.4012924967180856,-0.5862174586851183,0.9912038558387112,0.1166172606164079,-0.031902642069441864,0.05382891533168219
1,510.0,0.948103857421875,7.745242370605468,-6.804321118164062,-1.2549050553079841,-0.18559111817008406,-0.9530030640851481,1.6025709233468675,7.195426758265595,-8.048409103114857,-0.8695971896117312,0.1885792113159032,-0.43182948259172876,1.3431471313476562,7.745242370605468,-6.804321118164062,-1.1571133247000576,0.135229709219408,-0.9266232784443178,1.003016438243237,7.649492852856662,-7.256729475758217,-0.9690043577040982,0.2873856394025446,-0.643800171487976,0.948103857421875,7.745242370605468,-6.804321118164062,-1.2549050553079841,-0.18559111817008406,-0.9530030640851481,0.9920204712155334,0.11156871690416584,-0.03269890081147156,0.0487707697641768
1,520.0,1.3431471313476562,7.898471276855468,-7.134720947265625,-1.2162679955310103,-0.2819173051312978,-1.0408024516473056,1.5506861649470254,7.33603566198357,-7.865671471945011,-0.938931350795587,0.094479908026463,-0.5536240764028442,0.948103857421875,7.513004809570312,-6.517016918945312,-1.1571133247000576,0.135229709219408,-0.9423445648363278,0.7522041782635439,7.700749236506813,-6.8437575102467925,-0.9757780783890709,0.28822767066755134,-0.696249407430672,1.3431471313476562,7.898471276855468,-7.134720947265625,-1.2162679955310103,-0.2819173051312978,-1.0408024516473056,0.9927663561399358,0.10673947121327175,-0.033952646688707504,0.04323037340316543
1,530.0,1.3718775512695311,7.192181787109375,-6.517016918945312,-0.9354165403245945,0.135229709219408,-0.9266232784443178,1.5149244422115267,7.307264887008731,-7.5959405613450715,-0.9382283887013886,0.102629868265052,-0.628223916811139,0.948103857421875,7.192181787109375,-6.517016918945312,-0.9354165403245945,0.135229709219408,-0.9530030640851481,0.49193463032473417,7.72333206879183,-6.418174053273211,-0.9655602633178554,0.2854116067237138,-0.7340335305287528,1.3718775512695311,7.192181787109375,-6.517016918945312,-0.9354165403245945,0.135229709219408,-0.9266232784443178,0.9933625189110401,0.10318748403955617,-0.033153132286293775,0.03852426481981456
1,540.0,0.28730419921875,6.868964562988281,-5.7125651611328125,-0.9039739675405746,0.40075957175564453,-0.9423445648363278,1.2694003936129714,7.219604822204642,-7.21926548130262,-0.9313775044692258,0.1622558089631705,-0.6910480464161768,0.28730419921875,6.868964562988281,-5.7125651611328125,-0.9255574285194358,0.40075957175564453,-0.9423445648363278,0.23419705235075894,7.735046576497613,-5.995041459918447,-0.9415538430627426,0.2766047308846663,-0.755911322169342,0.28730419921875,6.868964562988281,-5.7125651611328125,-0.9039739675405746,0.40075957175564453,-0.9423445648363278,0.9939554924362839,0.09975451503539938,-0.030893771139927577,0.033868727324044196
1,550.0,-0.4165910888671875,6.83783994140625,-5.233724829101562,-0.9255574285194358,0.5631684540595444,-0.9637947945745787,0.9322020971169396,7.143251846044963,-6.822157350862408,-0.9302134892792678,0.24243833798244527,-0.7455973960478572,-0.4165910888671875,6.868964562988281,-5.233724829101562,-0.9039739675405746,0.5631684540595444,-0.9266232784443178,-0.004369655943058357,7.749496697270304,-5.589308192802482,-0.9075499357135627,0.257679255088834,-0.7630262256911726,-0.4165910888671875,6.83783994140625,-5.233724829101562,-0.9255574285194358,0.5631684540595444,-0.9637947945745787,0.994549123767726,0.09618749449995236,-0.027724079130746346,0.029178446686247257
1,560.0,-1.3000515014648437,6.4834980957031245,-4.762067102050781,-0.8117779490382787,0.6797457895935168,-0.7901944880594175,0.485751377400583,7.011301095976596,-6.410139301100084,-0.9065263812310701,0.3298998283046596,-0.7545168144501693,-1.158793603515625,6.868964562988281,-4.977545251464844,-0.8117779490382787,0.5631684540595444,-0.7901944880594175,-0.2060653082122003,7.772697649719444,-5.214108539028588,-0.8672836275190796,0.2252942948486372,-0.7584525489373721,-1.3000515014648437,6.4834980957031245,-4.762067102050781,-0.8117779490382787,0.6797457895935168,-0.7901944880594175,0.995042191091798,0.09312956917588196,-0.02391379608739809,0.025417546086097746
1,570.0,-1.2761094848632812,6.945579016113281,-4.65432802734375,-0.7551546717789206,0.6789464021498552,-0.575026034473857,0.1333792049478102,6.998156680003934,-6.058977046348817,-0.8762520393406403,0.39970914307369876,-0.7186186584549069,-1.158793603515625,6.945579016113281,-4.786009118652344,-0.7964563563680994,0.5631684540595444,-0.6455053607566814,-0.3573906120044642,7.800924794261744,-4.87930592701509,-0.8242612283047853,0.17893899484435682,-0.7465850635777903,-1.2761094848632812,6.945579016113281,-4.65432802734375,-0.7551546717789206,0.6789464021498552,-0.575026034473857,0.9954475528065593,0.090325789734534,-0.020204445004332713,0.022742069438199352
1,580.0,-1.158793603515625,8.990227233886719,-4.977545251464844,-0.7964563563680994,0.47110566679785876,-0.5848851462790158,-0.12505535674487683,7.396570790780491,-5.842690687372023,-0.8602929027461321,0.4139884478185308,-0.6918719560197286,-1.158793603515625,8.21690009765625,-4.762067102050781,-0.7551546717789206,0.47110566679785876,-0.5848851462790158,-0.45273795190987776,7.821328556637282,-4.591660707954933,-0.781636526325143,0.1221436747766467,-0.7320366349033188,-1.158793603515625,8.990227233886719,-4.977545251464844,-0.7964563563680994,0.47110566679785876,-0.5848851462790158,0.9958239003331959,0.08734392161813165,-0.01756600401946848,0.01993073968357977
1,590.0,-0.7685387329101562,9.64623848876953,-4.786009118652344,-0.6569632474491633,0.19398468632853008,-0.6455053607566814,-0.2537520319779327,7.8465043303783,-5.6313543736280876,-0.8196269716867384,0.3699876955205307,-0.6825986369671192,-0.9959878906249999,8.21690009765625,-4.65432802734375,-0.6569632474491633,0.19398468632853008,-0.575026034473857,-0.4949311197933,7.8181037184752435,-4.356963478302993,-0.7421576893016978,0.06262377056335205,-0.7185622308371659,-0.7685387329101562,9.64623848876953,-4.786009118652344,-0.6569632474491633,0.19398468632853008,-0.6455053607566814,0.996099406442203,0.08509176603780527,-0.016305424843271975,0.016718162540742026
1,600.0,-0.9959878906249999,8.21690009765625,-3.284844677734375,-0.3846385916418038,-0.239549770617237,-0.549845329998519,-0.4021992037073462,7.920583483833891,-5.162052434449345,-0.7326292956777515,0.24808020229297717,-0.6560479755733992,-0.7685387329101562,8.21690009765625,-3.284844677734375,-0.5779571217672826,-0.239549770617237,-0.5848851462790158,-0.4934657214907158,7.781769715984922,-4.1821263878143595,-0.7080020229543645,0.011129789198928918,-0.7086655093463519,-0.9959878906249999,8.21690009765625,-3.284844677734375,-0.3846385916418038,-0.239549770617237,-0.549845329998519,0.9962033290338453,0.0842192641797719,-0.01717767480376486,0.013819198646723112
1,610.0,-0.1388636962890625,7.845798840332031,-2.090138049316406,-0.3878361414164499,-0.7017289442942087,-0.5343905060877295,-0.34953210222368947,7.905626555133519,-4.547669557422758,-0.6636706648254912,0.05811837297554001,-0.6317164816762654,-0.1388636962890625,7.860164050292968,-3.284844677734375,-0.5779571217672826,-0.5426508430055652,-0.5946110268435644,-0.46228722327939936,7.7133312260696325,-4.07300490979079,-0.6800211525196878,-0.020958138770983445,-0.7035896715276019,-0.1388636962890625,7.845798840332031,-2.090138049316406,-0.3878361414164499,-0.7017289442942087,-0.5343905060877295,0.9962505145020819,0.08336597910165391,-0.02044986173678822,0.010808748202543569
1,620.0,0.3687070556640625,7.860164050292968,-2.427720483398437,-0.5779571217672826,-0.7329050545970082,-0.5946110268435644,-0.20588427064613907,7.89653405416541,-4.1236797426178935,-0.6465279562138495,-0.10008631253896963,-0.6242953907097252,-0.1388636962890625,7.845798840332031,-3.284844677734375,-0.5779571217672826,-0.5426508430055652,-0.5946110268435644,-0.41706292337078554,7.621256919545003,-4.027391589078528,-0.6568555224617164,-0.024815327182471557,-0.703207520363714,0.3687070556640625,7.860164050292968,-2.427720483398437,-0.5779571217672826,-0.7329050545970082,-0.5946110268435644,0.996352353866209,0.08157084145180475,-0.023926064871396705,0.007465131604914357
1,630.0,-0.0143652099609375,7.575254052734374,-3.775656018066406,-0.7551546717789206,-0.5426508430055652,-0.6267197558306357,-0.16758045850909875,7.832278053879204,-4.0540749977075965,-0.6682532993268637,-0.18859921863228873,-0.6247802637339073,-0.1388636962890625,7.575254052734374,-3.775656018066406,-0.7289081173787005,-0.5426508430055652,-0.6267197558306357,-0.371473434209208,7.517399119197165,-4.02941728008645,-0.6350517764864589,0.003138334645530322,-0.7059840245656035,-0.0143652099609375,7.575254052734374,-3.775656018066406,-0.7551546717789206,-0.5426508430055652,-0.6267197558306357,0.9965253685450963,0.07888969007419985,-0.02641099419823614,0.004008245441280485
1,640.0,-0.507570751953125,7.082048510742187,-4.886565588378906,-0.8048499245265455,-0.4060888213800547,-0.7249111801603929,-0.235578517197904,7.682232145251801,-4.220573115841859,-0.6955726243668001,-0.23209713918184194,-0.6448064470192044,-0.0143652099609375,7.302315063476562,-4.886565588378906,-0.7551546717789206,-0.4060888213800547,-0.7249111801603929,-0.334944369603724,7.415055533961145,-4.051503810665627,-0.6103444126797981,0.060270732476949286,-0.7092586065632721,-0.507570751953125,7.082048510742187,-4.886565588378906,-0.8048499245265455,-0.4060888213800547,-0.7249111801603929,0.9967133912729883,0.07596971646981653,-0.02812485880578144,0.0001007658153687898
1,650.0,-0.4213794921875,7.182604980468749,-5.7077767578125,-0.7289081173787005,-0.18292649335787897,-0.9159647791954975,-0.27273871219582324,7.582306712295191,-4.518013844235988,-0.7022397229691802,-0.22226301001704935,-0.699038113454463,-0.0143652099609375,7.182604980468749,-5.600037683105469,-0.7551546717789206,-0.18292649335787897,-0.7249111801603929,-0.31387374551182956,7.32749763456679,-4.062977491059442,-0.5791227961625063,0.13830217909767945,-0.7098606776145928,-0.4213794921875,7.182604980468749,-5.7077767578125,-0.7289081173787005,-0.18292649335787897,-0.9159647791954975,0.9968754648605856,0.07345382570429192,-0.028672037903617182,-0.00466447112205028
1,660.0,0.00718260498046875,7.302315063476562,-6.337451794433593,-0.8163078112190273,0.2543384383249752,-0.8490826964091498,-0.21675444876056485,7.526308382531465,-4.881901434275509,-0.7250533406191497,-0.12694272034864443,-0.7290470300454004,0.00718260498046875,7.082048510742187,-5.600037683105469,-0.7289081173787005,0.2543384383249752,-0.7249111801603929,-0.3139864963600495,7.266693216599035,-4.040258004311652,-0.5393147023993429,0.22458285111043458,-0.7050203427769628,0.00718260498046875,7.302315063476562,-6.337451794433593,-0.8163078112190273,0.2543384383249752,-0.8490826964091498,0.997102972111554,0.07050002589550457,-0.027118420489487916,-0.008944306859333392
1,670.0,1.0342951171875,6.002263562011718,-5.600037683105469,-0.5916799395501388,0.8243016856556425,-0.6824104144057219,0.03345546442904809,7.221499418427516,-5.025528684041501,-0.6983786604053476,0.06330616085221297,-0.7197197069174647,0.00718260498046875,7.182604980468749,-5.600037683105469,-0.5916799395501388,0.8243016856556425,-0.7844655447131765,-0.3399500430439903,7.242570331098874,-3.974722834597535,-0.49073939181212395,0.30413492734242964,-0.6930913270306377,1.0342951171875,6.002263562011718,-5.600037683105469,-0.5916799395501388,0.8243016856556425,-0.6824104144057219,0.9973032015412989,0.06864808470828504,-0.022939220421354763,-0.012147297140519755
1,680.0,0.13168109130859373,6.488286499023437,-4.151545678710937,-0.5239984693201296,1.1760321608667135,-0.6752159274127681,0.05310058980495723,7.074856834546702,-4.850732082975389,-0.663502622188304,0.2858513608551131,-0.7108189510165255,0.00718260498046875,7.252036828613281,-4.151545678710937,-0.5239984693201296,0.9191623289701435,-0.6824104144057219,-0.3918097823684554,7.261008942071471,-3.875353742523718,-0.43507145386320945,0.3628119694242322,-0.6734741530066413,0.13168109130859373,6.488286499023437,-4.151545678710937,-0.5239984693201296,1.1760321608667135,-0.6752159274127681,0.9974832968656165,0.06717105859081365,-0.0168653789381114,-0.015188164970250157
1,690.0,-0.40940848388671874,7.252036828613281,-3.1675287963867187,-0.342803982090184,1.1802955605662417,-0.7844655447131765,-0.039401224933377964,7.110292833360018,-4.514091425657655,-0.59936289416868,0.46474020079733885,-0.7255482697558557,-0.40940848388671874,6.809109521484374,-3.1675287963867187,-0.3713154675807784,0.9191623289701435,-0.6752159274127681,-0.46233053635078936,7.321215836231119,-3.7644063016480227,-0.3753614506440776,0.39084809593725905,-0.6461127895936007,-0.40940848388671874,7.252036828613281,-3.1675287963867187,-0.342803982090184,1.1802955605662417,-0.7844655447131765,0.9975462159872467,0.06660557156636818,-0.010662601307610991,-0.018749766377154396
1,700.0,-1.5322890624999999,7.517793212890624,-2.3535002319335936,-0.3713154675807784,0.9191623289701435,-0.6616263408705222,-0.33797879244670237,7.191792909266139,-4.081973186912843,-0.5537534088510998,0.5556246264318998,-0.7127638839787891,-1.4437036010742186,7.252036828613281,-2.482787121582031,-0.342803982090184,0.9191623289701435,-0.6616263408705222,-0.5391310384280392,7.416270330754252,-3.6683858049833096,-0.3153773497014012,0.3851991726055488,-0.6114014148630664,-1.5322890624999999,7.517793212890624,-2.3535002319335936,-0.3713154675807784,0.9191623289701435,-0.6616263408705222,0.9975756846079843,0.0658503847670465,-0.005654112808161989,-0.021783280590767395
1,710.0,-1.4437036010742186,6.809109521484374,-2.2649147705078123,-0.19425114880975058,0.6157947941005948,-0.5923460957531901,-0.5591237541722056,7.115256231709786,-3.7185615036318374,-0.48185295684282997,0.5676586599656388,-0.6886803263336693,-1.4437036010742186,7.517793212890624,-2.482787121582031,-0.19425114880975058,0.6157947941005948,-0.6616263408705222,-0.6104719739418812,7.536063052627713,-3.6091062496740616,-0.25915151801772796,0.34968767162293124,-0.5703944907761215,-1.4437036010742186,6.809109521484374,-2.2649147705078123,-0.19425114880975058,0.6157947941005948,-0.5923460957531901,0.9975189850814828,0.06594004013913278,-0.0021912134536632793,-0.02455573440274802
1,720.0,-1.886630908203125,7.687781530761718,-2.482787121582031,0.025313935715948293,0.07047932628282445,-0.49495405886709426,-0.8246251849783895,7.229761291520173,-3.471406627221876,-0.38041957833107437,0.46822279322907595,-0.6499350728403542,-1.4437036010742186,7.687781530761718,-2.482787121582031,-0.11098162342834172,0.07047932628282445,-0.5923460957531901,-0.6707637932555167,7.6683899000470035,-3.5980030147003985,-0.21058972268768783,0.29318076957627154,-0.5247219896743314,-1.886630908203125,7.687781530761718,-2.482787121582031,0.025313935715948293,0.07047932628282445,-0.49495405886709426,0.9973827705818775,0.06704959116821642,-0.001474866247216904,-0.027014552377299734
1,730.0,-0.7996633544921875,8.971073620605468,-2.8036101440429686,-0.05249310880044014,-0.11471209816542884,-0.6864073516240295,-0.8196328188811492,7.578023757337233,-3.337847330586095,-0.31483428442494754,0.35163581495017504,-0.6572295285970893,-0.7996633544921875,8.623914379882812,-2.8036101440429686,-0.05249310880044014,-0.11471209816542884,-0.5649004601874776,-0.7231383200263845,7.799300199605418,-3.6344207989463784,-0.1728034850340601,0.22661588331606222,-0.47636750033592107,-0.7996633544921875,8.971073620605468,-2.8036101440429686,-0.05249310880044014,-0.11471209816542884,-0.6864073516240295,0.9972340656111773,0.06776544875482783,-0.0017511076377036314,-0.030479435062017692
1,740.0,-0.1005564697265625,9.337386474609374,-3.9695863525390624,-0.11098162342834172,-0.175598775124315,-0.5649004601874776,-0.675817549050232,7.929896300791661,-3.4641951349766886,-0.2740637522256264,0.24618889693527704,-0.638763714915167,-0.11731588134765625,8.623914379882812,-3.9695863525390624,-0.03397396635561482,-0.175598775124315,-0.49495405886709426,-0.7778069639345491,7.91699390083386,-3.7073563005005696,-0.14755959596070772,0.16002503858490236,-0.4279039906886457,-0.1005564697265625,9.337386474609374,-3.9695863525390624,-0.11098162342834172,-0.175598775124315,-0.5649004601874776,0.9971123491321752,0.06817991616269381,-0.0024381278384286715,-0.033354426584887464
1,750.0,-0.086191259765625,8.623914379882812,-4.790797521972656,-0.03397396635561482,-0.35919142468524523,-0.19491730501280186,-0.5578922911933106,8.06869991660989,-3.729515612375882,-0.2260457950516241,0.1251128326111726,-0.549994432934694,-0.11731588134765625,8.623914379882812,-4.125209460449218,-0.04982848398823506,-0.175598775124315,-0.19491730501280186,-0.8466716361312983,8.017643473683279,-3.800299624560509,-0.13538005303622969,0.10062420759473974,-0.3828629358296,-0.086191259765625,8.623914379882812,-4.790797521972656,-0.03397396635561482,-0.35919142468524523,-0.19491730501280186,0.997016952142271,0.06894272628060125,-0.004180535109886389,-0.0344473621650437
1,760.0,-0.11731588134765625,8.008604553222655,-4.687846850585937,0.025447166956558548,-0.23861715193296523,0.026912710603271342,-0.4697770092241798,8.056680843932444,-3.921181860017893,-0.17574720264998758,0.05236683570234503,-0.4346130042271009,-0.11731588134765625,8.061276989746093,-4.125209460449218,-0.04982848398823506,-0.175598775124315,-0.19491730501280186,-0.937604441762461,8.107210177216277,-3.897928238719464,-0.1358407021317863,0.05202249364881859,-0.3450958540929093,-0.11731588134765625,8.008604553222655,-4.687846850585937,0.025447166956558548,-0.23861715193296523,0.026912710603271342,0.9969379598974757,0.0700175395993578,-0.0054059282591291885,-0.034395118891620606
1,770.0,-1.0319009155273438,7.917624890136718,-4.125209460449218,-0.04982848398823506,-0.06488361417719378,-0.02171669221947143,-0.5822017904848127,8.028869653173299,-3.9619873801041585,-0.15056345891763706,0.028916745726437272,-0.35203374182557506,-1.0319009155273438,8.061276989746093,-4.125209460449218,-0.04982848398823506,-0.06488361417719378,-0.19491730501280186,-1.0518721648835825,8.19783258344294,-3.9908696069276863,-0.14749927456328993,0.014251863365004853,-0.31709936396007143,-1.0319009155273438,7.917624890136718,-4.125209460449218,-0.04982848398823506,-0.06488361417719378,-0.02171669221947143,0.9968804997724812,0.0707448114753945,-0.005629110169839305,-0.0345362699400925
1,780.0,-1.4413093994140624,8.061276989746093,-3.861847277832031,-0.18625727437313533,0.02424808579106626,-0.22129709065363218,-0.7540233122706627,8.035351120487858,-3.9419593596497333,-0.15770222200873674,0.027983013739363072,-0.3258864115911865,-1.2521674682617188,8.061276989746093,-4.125209460449218,-0.18625727437313533,0.02424808579106626,-0.22129709065363218,-1.1854147260872694,8.302839532282587,-4.075595615679622,-0.16779201608241387,-0.015296037836722716,-0.2987863135402736,-1.4413093994140624,8.061276989746093,-3.861847277832031,-0.18625727437313533,0.02424808579106626,-0.22129709065363218,0.9968388294234332,0.07080818368753077,-0.0052691101269924535,-0.03564808206709292
1,790.0,-1.2521674682617188,8.185775476074218,-3.835511059570312,-0.32668300197634326,0.07754058203516793,-0.2927090356207284,-0.853652143468874,8.065435991605131,-3.9206696996338497,-0.19149837800225805,0.037894527398524044,-0.3192509363970949,-1.3575123413085937,8.12113203125,-4.125209460449218,-0.3193552837427793,0.07754058203516793,-0.2927090356207284,-1.3321470805436104,8.433871013741326,-4.15096049360078,-0.1934469171276798,-0.04037555901870539,-0.2877076841226645,-1.2521674682617188,8.185775476074218,-3.835511059570312,-0.32668300197634326,0.07754058203516793,-0.2927090356207284,0.9968331917528799,0.0701855594985825,-0.0046160849465154375,-0.03709807026522752
1,800.0,-1.3910311645507811,8.12113203125,-4.199429711914062,-0.3541286375420556,0.0863338439154447,-0.36158958701622984,-0.9611279476852554,8.076575199534105,-3.976421702089892,-0.22402442991021757,0.04758239070190817,-0.32771866652092185,-1.3910311645507811,8.12113203125,-4.199429711914062,-0.3193552837427793,0.0863338439154447,-0.2927090356207284,-1.4861227430513464,8.59996174706394,-4.215042793484162,-0.2213332813830016,-0.06458205082125114,-0.28020805505656915,-1.3910311645507811,8.12113203125,-4.199429711914062,-0.3541286375420556,0.0863338439154447,-0.36158958701622984,0.9968212048170861,0.06942753426969019,-0.0038738261734377823,-0.0388882576496028
1,810.0,-1.3575123413085937,8.130708837890625,-4.620809204101562,-0.3193552837427793,0.0991240430140291,-0.3955635533718446,-1.0404048264099233,8.08740192720541,-4.105299202492226,-0.24309060067672994,0.05789072116433236,-0.34128764389110644,-1.3910311645507811,8.130708837890625,-4.347870214843749,-0.3193552837427793,0.0863338439154447,-0.2927090356207284,-1.6413068567053648,8.806794584742084,-4.264461461082789,-0.2491869159730455,-0.09051668677444089,-0.2725522156442152,-1.3575123413085937,8.130708837890625,-4.620809204101562,-0.3193552837427793,0.0991240430140291,-0.3955635533718446,0.9967862601122384,0.06884632395528503,-0.0030669854447272034,-0.04084028562073119
1,820.0,-1.426944189453125,8.073247998046874,-4.704606262207031,-0.22049770320997067,0.09672588068304452,-0.26766156238600064,-1.1177126990185637,8.084571141373702,-4.225160614435188,-0.2385720211833781,0.0656577530680748,-0.3265624275900853,-1.426944189453125,8.130708837890625,-4.347870214843749,-0.22049770320997067,0.0863338439154447,-0.26766156238600064,-1.7903222100352878,9.055148226439188,-4.296002059351144,-0.2757338889723109,-0.11927584160898302,-0.2615895159582943,-1.426944189453125,8.073247998046874,-4.704606262207031,-0.22049770320997067,0.09672588068304452,-0.26766156238600064,0.9967399882564777,0.06875409453017177,-0.002326884110803358,-0.042152768665271435
1,830.0,-1.8626888916015625,8.571241943359375,-4.347870214843749,-0.14455589606212577,0.008127105677225504,-0.1337641655726952,-1.2667079375351635,8.181905301770838,-4.249702534516901,-0.21976879615912764,0.05415162358990494,-0.2880027751866073,-1.8626888916015625,8.571241943359375,-4.347870214843749,-0.22049770320997067,0.008127105677225504,-0.16267534478512036,-1.9234774360583229,9.338932545005367,-4.308611041584962,-0.3001463666238787,-0.15014246793816646,-0.24478718007669853,-1.8626888916015625,8.571241943359375,-4.347870214843749,-0.14455589606212577,0.008127105677225504,-0.1337641655726952,0.9966937851986831,0.0690145262599852,-0.0020518079287941285,-0.04282853949943203
1,840.0,-2.384624853515625,9.279925634765624,-4.029441394042968,-0.16907044433441254,-0.18932159290717118,-0.10471975511965978,-1.4902913207312558,8.401509368369796,-4.205650306422115,-0.20962912579418463,0.005456980290489716,-0.2513461711732178,-2.384624853515625,9.279925634765624,-4.029441394042968,-0.22049770320997067,-0.18932159290717118,-0.16267534478512036,-2.0290057272453197,9.64418526357229,-4.3035911011974655,-0.3211607952231348,-0.18061871607385493,-0.21964442665431247,-2.384624853515625,9.279925634765624,-4.029441394042968,-0.16907044433441254,-0.18932159290717118,-0.10471975511965978,0.9966599737363712,0.06910348820971379,-0.002728439906635047,-0.043429946865517495
1,850.0,-2.4851813232421875,9.821015209960937,-3.9145197143554684,-0.25473813204680595,-0.33933996983431736,-0.16267534478512036,-1.6892693212334424,8.685410536688025,-4.147424188008786,-0.2186509270447089,-0.0635024097344717,-0.2336120058955983,-2.4851813232421875,9.821015209960937,-3.9145197143554684,-0.25473813204680595,-0.30096937253856415,-0.16267534478512036,-2.094958198733505,9.950150300089604,-4.282724145362654,-0.3363970489376347,-0.20705125821209971,-0.18303188159435047,-1.3910311645507811,9.821015209960937,-3.9145197143554684,-0.25473813204680595,-0.33933996983431736,-0.16267534478512036,0.9966391536698908,0.06873417952196703,-0.004116767648413103,-0.0443741158980667
1,860.0,-2.6527754394531247,10.395623608398436,-3.758896606445312,-0.4038238902896804,-0.3853047478448551,-0.24034915806089852,-1.8819705448773791,9.027453151030107,-4.069718671696092,-0.25568551969370323,-0.1278628773565484,-0.23495943632865834,-2.549824768066406,10.395623608398436,-3.9145197143554684,-0.4038238902896804,-0.33933996983431736,-0.24034915806089852,-2.1116697687339228,10.231923891083424,-4.245879635787779,-0.3423075077891674,-0.2257187266471607,-0.13112809580200072,-1.3910311645507811,10.395623608398436,-3.758896606445312,-0.4038238902896804,-0.3853047478448551,-0.24034915806089852,0.9966470911737899,0.06761275499396137,-0.005672021048937939,-0.045726569892900755
1,870.0,-2.549824768066406,10.714052429199219,-3.6631285400390623,-0.4783001537908125,-0.30096937253856415,-0.27285758076980055,-2.015541389515185,9.36477300666393,-3.988400645364686,-0.3002084465131251,-0.16248417639295154,-0.24253906521688678,-2.549824768066406,10.714052429199219,-3.9145197143554684,-0.4038238902896804,-0.3853047478448551,-0.27285758076980055,-2.073467442477803,10.463284559208343,-4.1893144853867685,-0.33480063204570176,-0.23376554323204546,-0.06008443268500525,-1.3910311645507811,10.714052429199219,-3.6631285400390623,-0.4783001537908125,-0.30096937253856415,-0.27285758076980055,0.9966692544949131,0.0661430946794165,-0.0067942552017396535,-0.04721574172919199
1,880.0,-2.806004345703125,11.671733093261718,-4.630386010742187,-0.534124043606509,-0.3873032164540089,-0.328148545623056,-2.173633980752773,9.826165023983489,-4.1167977184401865,-0.3469915659318019,-0.20744798440516304,-0.25966096129812066,-2.549824768066406,11.671733093261718,-4.630386010742187,-0.4038238902896804,-0.3853047478448551,-0.27285758076980055,-1.9796464186609333,10.619368099266294,-4.105353447164824,-0.31021800666005195,-0.2295455895646151,0.03289613163211883,-1.3910311645507811,11.671733093261718,-4.630386010742187,-0.534124043606509,-0.3873032164540089,-0.328148545623056,0.9966866742207624,0.0643766635656079,-0.00831514992824894,-0.04901200771838452
1,890.0,-2.3056161987304686,12.320561743164061,-6.016628771972656,-0.3441362944962865,-0.49522052134831474,-0.3049663097568718,-2.200030424348312,10.325044367819604,-4.496763929146681,-0.3464205116446989,-0.2650024917937934,-0.2687220309898709,-2.3056161987304686,11.671733093261718,-4.630386010742187,-0.3441362944962865,-0.37890964829556284,-0.27285758076980055,-1.835284150526255,10.68026911728151,-3.9854767873411516,-0.2661591682127114,-0.2127263125714902,0.14835105693252032,-1.3575123413085937,12.320561743164061,-6.016628771972656,-0.3441362944962865,-0.49522052134831474,-0.3049663097568718,0.9966348034797994,0.0635369036627706,-0.010479166357986916,-0.050718018870723115
1,900.0,-1.4341267944335936,11.994950317382811,-6.785167504882812,-0.1680045944095305,-0.37890964829556284,-0.036238897445989134,-2.0468496983653686,10.659025557732246,-4.954444644293908,-0.3107373281976652,-0.28778392309414735,-0.22222540428109458,-1.4341267944335936,11.729193933105469,-4.630386010742187,-0.1680045944095305,-0.37890964829556284,-0.036238897445989134,-1.65116509481402,10.635774091063894,-3.82848954018556,-0.20164409653630824,-0.18467371047117748,0.28350799641773405,-1.4341267944335936,11.994950317382811,-6.785167504882812,-0.1680045944095305,-0.37890964829556284,-0.036238897445989134,0.9965944070984657,0.06359554179056798,-0.012259186171399707,-0.05103829110419604
1,910.0,-1.0989385620117187,11.506533178710937,-4.592078784179687,0.05555742733447599,-0.0860673814342242,0.29404134802683096,-1.8572674710946386,10.828527081927986,-4.881971472271063,-0.23747837709123698,-0.24744061476216272,-0.11897205381950948,-1.0989385620117187,11.729193933105469,-4.592078784179687,-0.1303001533168286,-0.0860673814342242,0.29404134802683096,-1.4414675255905942,10.488731326983327,-3.649891619916211,-0.11644818418674646,-0.1487092975717783,0.4319486602490463,-1.0989385620117187,11.506533178710937,-4.592078784179687,0.05555742733447599,-0.0860673814342242,0.29404134802683096,0.9965812352124345,0.06482289059250046,-0.012761538305252782,-0.04960824142997419
1,920.0,-0.63206923828125,11.729193933105469,-1.1707646118164061,-0.011058192970651096,-0.0021316998497640668,0.8739969384032674,-1.612227824531961,11.008660452163483,-4.139730100180132,-0.1921943402671198,-0.198378831779683,0.07962174462504591,-0.63206923828125,11.506533178710937,-1.20667763671875,-0.1303001533168286,-0.0334410413931738,0.8739969384032674,-1.2200219641707937,10.255401538251133,-3.48270644304675,-0.010124614681400647,-0.10947310005779234,0.5845142419787188,-0.63206923828125,11.729193933105469,-1.1707646118164061,-0.011058192970651096,-0.0021316998497640668,0.8739969384032674,0.9967267368541322,0.0657013452070031,-0.013049359703714385,-0.04526432910611841
1,930.0,-0.5602431884765625,10.098742602539062,0.3136404174804687,-0.1303001533168286,-0.0334410413931738,1.1892220536871287,-1.4018308973208813,10.8266768822386,-3.249055996648012,-0.17981550287706155,-0.16539127370238116,0.3015418064374625,-0.63206923828125,10.098742602539062,-1.20667763671875,-0.011058192970651096,-0.0021316998497640668,0.9483399706637892,-0.9973602480825386,9.964136333133801,-3.364101593843232,0.11829969041473619,-0.07174102072429767,0.7314518563563346,-0.5602431884765625,10.098742602539062,-3.9145197143554684,-0.1303001533168286,-0.0334410413931738,1.1892220536871287,0.9969533585936656,0.06595581929672877,-0.013564300278452023,-0.03936801300121017
1,940.0,-0.5339069702148437,8.329427575683594,-1.20667763671875,-0.15894487004803323,0.014255742745297197,1.2445130185403843,-1.2282461118996737,10.327227020927598,-2.8405803246621595,-0.1756413763112559,-0.1294618704128455,0.49013604885804685,-0.63206923828125,8.329427575683594,-1.20667763671875,-0.011058192970651096,0.014255742745297197,0.9483399706637892,-0.7795406175803632,9.651775932716196,-3.3161626929629855,0.2693531307953576,-0.03971784895505635,0.8649444173429245,-0.5339069702148437,8.329427575683594,-1.20667763671875,-0.15894487004803323,0.014255742745297197,1.2445130185403843,0.997166845227089,0.06607080236451367,-0.013850099879945812,-0.03318292615306309
1,950.0,-0.6679822631835937,7.5345526245117185,-3.0430303100585934,0.04316692195772235,0.015454823910789483,0.9483399706637892,-1.1161933421564578,9.768692141644422,-2.8810703217414466,-0.13187971665746026,-0.1004785315481185,0.5817768332191954,-0.5602431884765625,7.6231380859375,-3.0430303100585934,0.04316692195772235,0.015454823910789483,1.0799724363867202,-0.5687195242218045,9.35554456505833,-3.3363680827861595,0.441402652715355,-0.016997866726796065,0.9804803541085831,-0.6679822631835937,7.5345526245117185,-3.0430303100585934,0.04316692195772235,0.015454823910789483,0.9483399706637892,0.9972337417958137,0.06721179098414995,-0.0140498181613276,-0.02846123655530511
1,960.0,-0.6703764648437499,7.6231380859375,-3.8666356811523435,0.40995252735775206,0.19265237392242754,0.8313629414079861,-1.0270299666939162,9.339581330503037,-3.0781833936236263,-0.023513267854417805,-0.0418523504540093,0.6316940548569535,-0.5339069702148437,7.5345526245117185,-3.8666356811523435,0.40995252735775206,0.19265237392242754,1.0799724363867202,-0.3650976570074359,9.103424641823823,-3.4030722633970605,0.6294311747172746,-0.006600534267561524,1.0760807920761395,-0.6703764648437499,7.6231380859375,-3.8666356811523435,0.40995252735775206,0.19265237392242754,0.8313629414079861,0.9971477034161699,0.07021320654878768,-0.013382988734463154,-0.024237549598275624
1,970.0,-0.39743747558593745,7.388506323242187,-4.7884033203125,0.8722649322753341,0.2139693724200682,1.0799724363867202,-0.9011114684723205,8.949366329050868,-3.420227378961401,0.15564237217153257,0.009311994120806202,0.7213497311629069,-0.39743747558593745,7.4770917846679685,-4.7884033203125,0.8722649322753341,0.19265237392242754,1.0799724363867202,-0.1692691415998799,8.908596457284412,-3.487883169674522,0.8251606299749876,-0.010619935315030969,1.1502288016091162,-0.39743747558593745,7.388506323242187,-4.7884033203125,0.8722649322753341,0.2139693724200682,1.0799724363867202,0.9968876142634684,0.0755027031051675,-0.01278789265623076,-0.018732222327208226
1,980.0,0.19632453613281248,6.746860278320312,-5.255272644042968,1.3111286388455112,0.20104594208087354,1.3331117935462033,-0.6816242675512939,8.508865118904758,-3.787236431977715,0.3867396255063283,0.047658783712819675,0.8437021436395662,0.07900865478515624,7.4770917846679685,-4.96078583984375,1.3111286388455112,0.19265237392242754,1.3331117935462033,0.01646280955978501,8.768137009237998,-3.566429557686102,1.0185150217434344,-0.02957172297324261,1.2005479944222088,0.19632453613281248,6.746860278320312,-5.255272644042968,1.3111286388455112,0.20104594208087354,1.3331117935462033,0.9964039568563202,0.08295309035989024,-0.012470020738226307,-0.011934745225622137
1,990.0,0.07900865478515624,7.4770917846679685,-5.827486840820312,1.8532465568886356,-0.09366156214900868,1.5044471689709902,-0.5294976830840038,8.302510452057401,-4.195286513746234,0.6800410117827898,0.01939471454045401,0.9758511487058511,0.19632453613281248,7.4770917846679685,-4.96078583984375,1.5490796345754252,-0.07420980101991158,1.4311699866353502,0.18848642887736558,8.662677855122567,-3.625869401791378,1.1999408113756702,-0.062040986297302626,1.2242704902266537,0.07900865478515624,7.4770917846679685,-5.827486840820312,1.8532465568886356,-0.09366156214900868,1.5044471689709902,0.9955562423513163,0.0930635388794651,-0.013705173502297763,-0.004371986485459022
1,1000.0,1.2521674682617188,10.326191760253906,-4.96078583984375,1.8981454849742911,-0.36838438028735276,1.888686066890963,-0.17316465281485932,8.707246713696701,-4.3483863789657375,0.92366190642109,-0.05816110442510735,1.1584181323428737,0.5746083984375,9.26316622314453,-4.96078583984375,1.5490796345754252,-0.07420980101991158,1.4311699866353502,0.34339892028323354,8.558588947698246,-3.6696569307176725,1.3629510086731111,-0.10529650187872175,1.2199241825517009,1.2521674682617188,10.326191760253906,-4.96078583984375,1.8981454849742911,-0.36838438028735276,0.8845222064114775,0.994495691977398,0.10333702821801004,-0.01658101653534467,0.004984689370563599
1,1010.0,1.1109095703125,11.33175645751953,-3.2920272827148436,1.5490796345754252,-0.07420980101991158,1.4311699866353502,0.08365019181061256,9.232148662461267,-4.137114559715559,1.048745452051957,-0.061370843744068204,1.212968503201369,0.8810662109374999,9.26316622314453,-3.2920272827148436,1.5490796345754252,-0.07420980101991158,1.4311699866353502,0.4803775835079245,8.418002263537469,-3.717610734307047,1.5056660153121766,-0.1566149815286882,1.189219943623949,1.1109095703125,11.33175645751953,-3.2920272827148436,1.5490796345754252,-0.07420980101991158,1.4311699866353502,0.9934877395718091,0.11188795015307557,-0.017742470129945103,0.012182064058598731
1,1020.0,0.5746083984375,9.26316622314453,-1.5514426757812498,1.3296477812903367,-0.005728943346240929,0.8845222064114775,0.18184183313599006,9.23835217459792,-3.619980182928697,1.104925917899633,-0.05024246366450275,1.1472792438433908,0.8810662109374999,9.26316622314453,-2.480392919921875,1.3296477812903367,-0.005728943346240929,0.8845222064114775,0.603437603502626,8.213462443846703,-3.798543609085348,1.62997588091862,-0.2138625526700015,1.1376321279955368,0.5746083984375,9.26316622314453,-1.5514426757812498,1.3296477812903367,-0.005728943346240929,0.8845222064114775,0.9925409042510309,0.11938174443333575,-0.01823361878061842,0.016675959665424442
1,1030.0,0.8810662109374999,8.717288244628906,-1.675941162109375,1.2676952544065685,0.10405359891660851,0.6479035230876661,0.32168670869629207,9.134139388604117,-3.2311723787648328,1.13747978520102,-0.019383251148280503,1.0474040996922458,0.5746083984375,8.717288244628906,-2.480392919921875,1.3296477812903367,-0.005728943346240929,0.6479035230876661,0.7212215253331687,7.935353274188861,-3.9372175889847565,1.738640525979473,-0.2745142011549049,1.0725040053854875,0.8810662109374999,8.717288244628906,-1.675941162109375,1.2676952544065685,0.10405359891660851,0.6479035230876661,0.9915903889438291,0.12656733410502255,-0.018080217025037953,0.02005782251643554
1,1040.0,0.29448680419921874,8.24802471923828,-2.480392919921875,1.1271362955627502,0.1650735071161049,0.5306600313506423,0.3162467277968774,8.956916454730951,-3.081016486996241,1.1354110872733663,0.017508100504596585,0.9440552860239251,0.29448680419921874,8.24802471923828,-2.480392919921875,1.3296477812903367,-0.005728943346240929,0.6479035230876661,0.8444783180765132,7.5888517090287735,-4.142913297476521,1.832102912803897,-0.33395024333857465,0.9998889742591748,0.29448680419921874,8.24802471923828,-2.480392919921875,1.1271362955627502,0.1650735071161049,0.5306600313506423,0.9906899563408874,0.1330551726983114,-0.01750435802369537,0.022876382443288403
1,1050.0,-0.7661445312499999,6.715735656738281,-3.7517140014648436,1.4563506911106883,-0.33560949509723026,0.6100658507543538,0.09976847598750196,8.508680295132418,-3.2151559898899618,1.1995990080408307,-0.05311541861576879,0.8772573989700109,0.29448680419921874,6.715735656738281,-3.7517140014648436,1.4563506911106883,-0.33560949509723026,0.6479035230876661,0.9823999471135004,7.187925038944567,-4.4058527993179,1.9062415652074867,-0.38425912814880075,0.9223747396136235,-0.7661445312499999,6.715735656738281,-3.7517140014648436,1.4563506911106883,-0.33560949509723026,0.6100658507543538,0.9894560489024116,0.14121035997451797,-0.01929872172033603,0.02576666191528187
1,1060.0,-0.5961562133789062,5.6766521362304685,-6.2392895263671875,2.271326189923613,-1.0803721301085512,0.7470275661016952,-0.03941646188577967,7.942274663352029,-3.8199826971854067,1.4139444444173872,-0.2585667609143253,0.8512114323963478,0.29448680419921874,6.5385647338867185,-5.2433016357421875,2.271326189923613,-1.0803721301085512,0.7470275661016952,1.1369939580865727,6.749794344258381,-4.702195572735998,1.9519673291510298,-0.414857575955859,0.8387054364984128,-0.5961562133789062,5.6766521362304685,-6.2392895263671875,2.271326189923613,-1.0803721301085512,0.7470275661016952,0.9874205432978312,0.15346427661501466,-0.024802790261566995,0.028882660398358177
1,1070.0,1.6615759521484375,6.49307490234375,-7.074865905761718,2.8283660069150858,-1.3259173065532495,1.2660964795192453,0.30078202092106376,7.652434711150374,-4.470959338900669,1.696828756916927,-0.47203687004211015,0.9341884418209273,1.6615759521484375,6.49307490234375,-5.2433016357421875,2.271326189923613,-1.0803721301085512,0.7470275661016952,1.2982480630565199,6.289476004781834,-5.00519494932419,1.9577732416824574,-0.415732243168779,0.7450947794328696,1.6615759521484375,6.49307490234375,-7.074865905761718,1.4563506911106883,0.016120980113840756,0.6479035230876661,0.9845969697653493,0.16837580192683355,-0.03210445474289876,0.03446303004740976
1,1080.0,3.4739866088867184,6.5385647338867185,-5.2433016357421875,2.613597247051356,-1.196683003161303,1.3231194505004342,0.9354229385141948,7.4296607156976435,-4.625427798268973,1.8801824549438129,-0.6169660966659487,1.0119746435568286,2.1691467041015624,5.6766521362304685,-5.9208607055664055,2.271326189923613,-1.0803721301085512,0.7470275661016952,1.44704868167986,5.818126591516569,-5.2963914176554745,1.9144134867267928,-0.3817500084817945,0.6380714565404594,3.4739866088867184,6.5385647338867185,-5.2433016357421875,1.4563506911106883,-1.196683003161303,0.6100658507543538,0.9816765710741939,0.18208277085484806,-0.03903542108687579,0.04041299620671823
1,1090.0,2.990357873535156,5.559336254882812,-4.575319372558593,2.1799295588649787,-0.7323721296345672,0.6629586532766247,1.3464099255183872,7.055595823534677,-4.615406113126897,1.9401318757280461,-0.6400473032596725,0.9421714455007879,2.1691467041015624,5.559336254882812,-5.9208607055664055,2.1799295588649787,-0.7323721296345672,0.6629586532766247,1.5661894460433237,5.346620315859501,-5.567839237110554,1.8184375760232783,-0.31517280755872434,0.5175199147518713,2.990357873535156,5.559336254882812,-4.575319372558593,2.1799295588649787,-0.7323721296345672,0.6629586532766247,0.979156585521228,0.19365145743068576,-0.04316925057413708,0.04345008481290483
1,1100.0,2.1691467041015624,4.991910461425781,-5.9208607055664055,1.7522572765060629,-0.24314701411371387,0.1576125576419307,1.5109572812350223,6.6428587511128985,-4.876497031614799,1.9025569558836495,-0.5606672454304807,0.7852596679290165,2.1691467041015624,4.991910461425781,-5.9208607055664055,1.7522572765060629,-0.24314701411371387,0.1576125576419307,1.6498527052418273,4.888988951567843,-5.81513737767488,1.6723875317458805,-0.22511092943591826,0.38738640773941746,2.1691467041015624,4.991910461425781,-5.9208607055664055,1.7522572765060629,-0.24314701411371387,0.1576125576419307,0.9771351549724454,0.20313387080337672,-0.04443449913470051,0.044374482938515016
1,1110.0,1.0821791503906248,4.2329485351562495,-7.208941198730468,1.5624027586364506,0.20051301711843253,-0.0334410413931738,1.425201655066143,6.160876707921569,-5.342985865037933,1.83452611643421,-0.4084311929206981,0.6215195260645784,2.1643583007812497,4.2329485351562495,-6.921636999511718,1.5624027586364506,0.18772281801984814,-0.004663093421358896,1.7038447811688873,4.462123860378743,-6.032312666041953,1.4827292641964889,-0.12471471637036316,0.25345964005136934,1.0821791503906248,4.2329485351562495,-7.208941198730468,1.5624027586364506,0.20051301711843253,-0.0334410413931738,0.9753611528124599,0.2116502155707664,-0.043269901574842895,0.044749563695086626
1,1120.0,1.3335703247070312,3.900154504394531,-7.2903440551757805,1.5581393589369226,0.18772281801984814,-0.013323124061025418,1.4068753889943206,5.7087322672161624,-5.732457503065503,1.7792487649347526,-0.2892003907325889,0.4945509960394576,2.1068974609374997,3.9240965209960934,-6.921636999511718,1.5581393589369226,0.20051301711843253,-0.013323124061025418,1.7389731497005874,4.0836014999213495,-6.214897899639275,1.2579696146927237,-0.02781131189584594,0.1206514541261227,1.3335703247070312,3.900154504394531,-7.2903440551757805,1.5581393589369226,0.18772281801984814,-0.013323124061025418,0.9735089706216172,0.2201191347355601,-0.042226365642415976,0.04521929551795647
1,1130.0,2.1643583007812497,3.9240965209960934,-6.921636999511718,1.207741196131954,0.4936217464609917,-0.004663093421358896,1.5583719713517064,5.351805117972148,-5.970293402354747,1.664947251174193,-0.13263596329387278,0.3947081781472943,1.3335703247070312,3.900154504394531,-6.921636999511718,1.207741196131954,0.4936217464609917,-0.0334410413931738,1.7651321668209206,3.7701610574028175,-6.365567045607594,1.0082259045523825,0.05351166441062983,-0.008031536706778015,2.1643583007812497,3.9240965209960934,-6.921636999511718,1.207741196131954,0.4936217464609917,-0.004663093421358896,0.9720440917174896,0.22676460603595555,-0.039877687624437975,0.04602029157019882
1,1140.0,2.1068974609374997,3.287238879394531,-6.5505357421875,0.6894716701580653,0.815108730053535,-0.04090199086734803,1.6680770692688651,4.938891870256625,-6.086341870321298,1.4698521349709674,0.056912975375608785,0.3075861443443659,1.3335703247070312,3.287238879394531,-6.5505357421875,0.6894716701580653,0.4936217464609917,-0.04090199086734803,1.790651376852691,3.53756692138042,-6.49551729349382,0.7454666017330944,0.11033902049756161,-0.13089023165819222,2.1068974609374997,3.287238879394531,-6.5505357421875,0.6894716701580653,0.815108730053535,-0.04090199086734803,0.9711979064976063,0.2308082000435676,-0.03606705476025582,0.046918746447829195
1,1150.0,0.9121908325195311,2.9735984619140625,-6.313509777832031,0.1650735071161049,0.7400995415899619,-0.1767978562898073,1.5168998219189984,4.545833188588113,-6.131775451823445,1.208896409399995,0.19355028861847942,0.21070934421753124,1.235408056640625,2.9735984619140625,-6.313509777832031,0.1650735071161049,0.4936217464609917,-0.1767978562898073,1.8241781633816287,3.4006598579635616,-6.621437623572534,0.48287826334034667,0.13831720761021585,-0.24646023769388667,0.9121908325195311,2.9735984619140625,-6.313509777832031,0.1650735071161049,0.7400995415899619,-0.1767978562898073,0.9709473354470848,0.23239204981796513,-0.03242551850772455,0.046944570709678425
1,1160.0,0.5506663818359374,2.2649147705078123,-5.834669445800781,-0.2255604903531603,0.28218376761251834,-0.40169219043991633,1.3236531339023863,4.089649504972053,-6.072354250618912,0.9220050294493639,0.2112769844172872,0.08822903728604173,1.235408056640625,2.6862942626953124,-6.263231542968749,-0.2255604903531603,0.28218376761251834,-0.40169219043991633,1.8731759151488279,3.3718359465545196,-6.760943235893422,0.23303857376529688,0.13860229213997727,-0.3528685931000342,0.5506663818359374,2.2649147705078123,-5.834669445800781,-0.2255604903531603,0.28218376761251834,-0.40169219043991633,0.9711173752649046,0.23223313253989802,-0.030797245399276644,0.04528073856647188
1,1170.0,1.235408056640625,2.346317626953125,-6.263231542968749,-0.42287595769694675,0.016120980113840756,-0.5477136301487548,1.306004118450034,3.7409831293682676,-6.11052970908888,0.6530288320201019,0.17224578355659795,-0.038959496200917584,1.235408056640625,2.6862942626953124,-6.263231542968749,-0.42287595769694675,0.016120980113840756,-0.5477136301487548,1.9389401820118661,3.4578597780333116,-6.928225047522745,0.005885696103223681,0.1169714342398846,-0.44793636078391225,1.235408056640625,2.346317626953125,-6.263231542968749,-0.42287595769694675,0.016120980113840756,-0.5477136301487548,0.9715027995712243,0.23117191410642093,-0.030448091686954917,0.04260012049595177
1,1180.0,2.142810485839844,2.6862942626953124,-6.133944653320312,-0.5431837679680063,-0.054491577409593955,-0.6933353761357627,1.473365391927996,3.5300453560336766,-6.115212697935166,0.4137863120224803,0.12689831136335955,-0.16983467218788662,2.142810485839844,2.6862942626953124,-6.263231542968749,-0.5431837679680063,-0.054491577409593955,-0.6933353761357627,2.013986634421516,3.6566754210269634,-7.130934846065057,-0.1925088908445956,0.08136285492074141,-0.5297910404229366,2.142810485839844,2.6862942626953124,-6.133944653320312,-0.5431837679680063,-0.054491577409593955,-0.6933353761357627,0.9720419796662972,0.2295148760081852,-0.030416245222160323,0.03914285993586137
1,1190.0,2.6431986328124997,3.2920272827148436,-6.445190869140625,-0.5462480865020422,-0.0752756509447936,-0.7227794803106289,1.7073320401048968,3.4824417413699105,-6.181208332176258,0.2217794323175758,0.08646351890172892,-0.28042363381243507,2.6431986328124997,3.2920272827148436,-6.445190869140625,-0.5462480865020422,-0.054491577409593955,-0.6933353761357627,2.0849472985414446,3.956114516741502,-7.3685975613420975,-0.36004683166579066,0.039659808271298155,-0.5975064223456281,2.6431986328124997,3.2920272827148436,-6.445190869140625,-0.5462480865020422,-0.0752756509447936,-0.7227794803106289,0.9725740563728007,0.22783624070333447,-0.030470956150498312,0.03552285354533135
1,1200.0,2.896984008789062,4.374206433105469,-6.904877587890625,-0.6849418079773167,-0.07860643196004996,-0.7287748861380903,1.9452624338417301,3.6607946797170223,-6.325942183319132,0.040435184258597295,0.05344952872937314,-0.3700938842775662,2.703053674316406,4.374206433105469,-6.904877587890625,-0.6849418079773167,-0.054491577409593955,-0.6933353761357627,2.138220151808031,4.335203241735406,-7.631935080817383,-0.4979080725707917,-0.001268881857583486,-0.6514196862583153,2.896984008789062,4.374206433105469,-6.904877587890625,-0.6849418079773167,-0.07860643196004996,-0.7287748861380903,0.9732459451674655,0.22549277248555835,-0.030522232445852056,0.03183917552927758
1,1210.0,3.2034418212890623,4.601655590820312,-7.156268762207031,-0.9093032171649847,0.02971056665608668,-0.6220566624092767,2.1968983113311964,3.8489668619376807,-6.492007499096712,-0.14951249602611913,0.04870173631471585,-0.4204864399039083,2.703053674316406,4.601655590820312,-7.156268762207031,-0.6849418079773167,-0.0752756509447936,-0.7227794803106289,2.1647560845358873,4.767312206129298,-7.902954704255987,-0.6097873991594494,-0.035547392589312485,-0.6929655576630998,3.2034418212890623,4.601655590820312,-7.156268762207031,-0.9093032171649847,0.02971056665608668,-0.6220566624092767,0.9741508356442414,0.22201241471183258,-0.03021876212287879,0.0287656660484091
1,1220.0,2.703053674316406,5.212177014160156,-8.757989672851561,-0.836558959791786,0.18119448722994566,-0.5012159271757762,2.2981293839282384,4.121608892382176,-6.945203933847682,-0.2869217887792525,0.07520028649776181,-0.43663233735828194,2.703053674316406,5.212177014160156,-8.757989672851561,-0.6849418079773167,-0.07860643196004996,-0.7287748861380903,2.162811651658287,5.223253071271087,-8.156465810798617,-0.7016140070989803,-0.05765214115830028,-0.723970417424767,2.703053674316406,5.212177014160156,-8.757989672851561,-0.836558959791786,0.18119448722994566,-0.5012159271757762,0.9749563568303563,0.2188785200824637,-0.029212925503338066,0.0264367302465
1,1230.0,-0.8307879760742187,7.189787585449218,-10.32379755859375,-0.16733843820647923,-0.5445160803741088,-1.0280122525487212,1.672345911927747,4.7352446309955845,-7.620922658796896,-0.2630051186646979,-0.04874298687661232,-0.5549083203963698,2.703053674316406,6.2584431396484375,-8.757989672851561,-0.3062986221629743,-0.19811485478744795,-0.6220566624092767,2.1363191420698744,5.673818400092428,-8.364794194424768,-0.7809894649410681,-0.06178271103046721,-0.7458832942649005,2.0661960327148434,7.189787585449218,-10.32379755859375,-0.16733843820647923,-0.5445160803741088,-0.6933353761357627,0.9749695957853062,0.21922510375986853,-0.030717845861445846,0.020761867000441872
1,1240.0,2.0661960327148434,8.166621862792969,-9.076418493652342,-0.3062986221629743,-0.6865405828646397,-0.934617152880933,1.7511159360851665,5.421520077355062,-7.912021825767987,-0.2716638193643532,-0.1763025060742178,-0.6308500868932825,2.703053674316406,6.471527087402343,-8.757989672851561,-0.3062986221629743,-0.19811485478744795,-0.6096661570325231,2.0868609953528505,6.094486398103648,-8.505490183906746,-0.8550065326753927,-0.042741518293204585,-0.7600023910057176,2.0661960327148434,8.166621862792969,-9.076418493652342,-0.3062986221629743,-0.6865405828646397,-0.934617152880933,0.9750671249222578,0.21886120216883856,-0.033259733798888726,0.015416425937288706
1,1250.0,3.105279553222656,6.2584431396484375,-8.317456567382813,-0.3017687599822257,-0.19811485478744795,-0.6096661570325231,2.0219486595126646,5.588904689813737,-7.9931087740909526,-0.27768480748792773,-0.18066497581686383,-0.6266133009211305,2.0661960327148434,6.555324145507812,-8.317456567382813,-0.3062986221629743,-0.19811485478744795,-0.7542220530946488,2.00746897564233,6.471408910318869,-8.565825849475543,-0.9271943905563195,0.0017423184716979872,-0.7684254513450569,3.105279553222656,6.2584431396484375,-8.317456567382813,-0.3017687599822257,-0.19811485478744795,-0.6096661570325231,0.9751961495988946,0.218387691287616,-0.03391153712018444,0.012218582229618214
1,1260.0,2.808398547363281,6.471527087402343,-7.299920861816406,-0.7811347636979202,-0.13323124061025418,-0.5641010727438162,2.179238637082788,5.765429169331458,-7.854471191636044,-0.3783747987299263,-0.1711782287755419,-0.6141108552856677,2.0661960327148434,6.555324145507812,-8.317456567382813,-0.7811347636979202,-0.18679019933557636,-0.7542220530946488,1.8873111099629516,6.801626776712822,-8.539133575895887,-0.9958413023968581,0.06981321049180704,-0.7739478272256807,2.808398547363281,6.471527087402343,-7.299920861816406,-0.7811347636979202,-0.13323124061025418,-0.5641010727438162,0.9758425373877739,0.21556834549053083,-0.03430023762318669,0.00922628560468896
1,1270.0,1.879448303222656,6.555324145507812,-8.022969763183593,-1.3973292515203457,-0.06062021447766565,-0.7542220530946488,2.119280570310762,5.923408164566729,-7.888170905945554,-0.5821656892880103,-0.14906662591596664,-0.642133094847464,1.879448303222656,6.555324145507812,-8.317456567382813,-1.3973292515203457,-0.13323124061025418,-0.741165391514844,1.7202000143334124,7.086381504337346,-8.417110546613157,-1.0547818562505225,0.1562890474591016,-0.7788388030042446,1.879448303222656,6.555324145507812,-8.022969763183593,-1.3973292515203457,-0.06062021447766565,-0.7542220530946488,0.9771379712537759,0.2097930481646608,-0.0340679667361036,0.005256968546922681
1,1280.0,1.3646949462890625,6.957550024414062,-10.05564697265625,-1.757586526130473,-0.18679019933557636,-0.8333614100171398,1.968363445506422,6.130236536536196,-8.321666119287693,-0.817249856656503,-0.1566113405998886,-0.6803787578813991,1.879448303222656,6.957550024414062,-9.706093530273437,-1.3973292515203457,-0.06062021447766565,-0.741165391514844,1.5064880648591574,7.324868232477851,-8.186693101357898,-1.0963986993973902,0.25348981253543734,-0.7842545371786777,1.3646949462890625,6.957550024414062,-10.05564697265625,-1.757586526130473,-0.18679019933557636,-0.8333614100171398,0.9787264146861036,0.20227771343416964,-0.034319825273100235,0.0006938564354837177
1,1290.0,1.8243816650390623,8.441955053710936,-11.499350573730467,-1.668454826162213,0.06461715169597328,-0.741165391514844,1.9395670894129502,6.592580239971145,-8.957203010176249,-0.987490850557645,-0.11236564214071623,-0.6925360846080881,1.8243816650390623,8.259995727539062,-9.706093530273437,-1.3973292515203457,0.06461715169597328,-0.7542220530946488,1.250142723872225,7.512972041856673,-7.837062906692819,-1.1154461383778949,0.35099116976086864,-0.7907225434620104,1.8243816650390623,8.441955053710936,-7.127538342285156,-1.668454826162213,0.06461715169597328,-0.741165391514844,0.9801950825520938,0.19516423508282982,-0.03344573317914657,-0.003147128427254563
1,1300.0,2.5761609863281247,9.220070593261719,-9.706093530273437,-1.3561607981717771,0.966059725664953,-0.6423078109820354,2.066885868795985,7.11807831062926,-9.106981114195687,-1.0612248400804716,0.10331943142041762,-0.6824904298828776,1.3646949462890625,8.259995727539062,-9.706093530273437,-1.3561607981717771,0.966059725664953,-0.7778039826826638,0.9580402775860546,7.64697496189159,-7.373372866859623,-1.1114480851002249,0.43564557111191016,-0.7985386742009749,2.5761609863281247,9.220070593261719,-9.706093530273437,-1.3561607981717771,0.966059725664953,-0.6423078109820354,0.9814469439980777,0.18955260560641699,-0.02829781175822674,-0.005562344321260183
1,1310.0,0.9050082275390624,8.259995727539062,-7.127538342285156,-1.0618529876637257,1.4899249637444725,-0.7960566626462687,1.8345103405446006,7.346461794011221,-8.711092559813581,-1.0613504695971225,0.3806405378852286,-0.7052036764355558,0.9050082275390624,8.259995727539062,-7.127538342285156,-1.0618529876637257,1.0305436461203161,-0.7778039826826638,0.6432062936561093,7.729701263285518,-6.825122254423508,-1.0884955527166933,0.4939413411414822,-0.8075193150444324,0.9050082275390624,8.259995727539062,-7.127538342285156,-1.0618529876637257,0.02971056665608668,-0.7960566626462687,0.9824133944240542,0.18542839411205658,-0.020318292719803878,-0.008209756036807028
1,1320.0,-0.24899697265624998,7.486668591308593,-4.73094248046875,-0.9118346107365796,1.359758041668254,-0.7778039826826638,1.4178088779044304,7.3745031534706955,-7.915062543944615,-1.031447297825014,0.5764640386418337,-0.7197237376849774,-0.24899697265624998,7.486668591308593,-4.73094248046875,-0.9118346107365796,1.0305436461203161,-0.7960566626462687,0.32642903882329094,7.7731765890555256,-6.2408238092763675,-1.0532555532241847,0.5164093511453025,-0.8167437672704486,-0.24899697265624998,7.486668591308593,-4.73094248046875,-0.9118346107365796,-0.006794793271122963,-0.7778039826826638,0.9831494891285847,0.18202445832760575,-0.012876175878078499,-0.010880381036613571
1,1330.0,-0.4285620971679687,6.732495068359374,-3.526659045410156,-0.7786033701263254,1.0305436461203161,-0.7996539061427456,1.0485346828899504,7.246101536448432,-7.037381844237723,-0.9808785122852763,0.6672799601375302,-0.735709771376531,-0.4285620971679687,6.742071875,-3.526659045410156,-0.7786033701263254,1.0305436461203161,-0.7996539061427456,0.0321813202840158,7.794583612004405,-5.673157197853286,-1.0127551579517164,0.5009520697569779,-0.8247098241906922,-0.4285620971679687,6.732495068359374,-3.526659045410156,-0.7786033701263254,-0.01785298624177406,-0.7996539061427456,0.9836805274050855,0.17924632390289788,-0.007004476904012474,-0.013939608124023449
1,1340.0,-1.0319009155273438,6.375759020996093,-3.1794998046874996,-0.717583461926829,0.6091332320700821,-0.8846554376520877,0.6324475632064916,7.072033033357965,-6.265805436327678,-0.928219502213587,0.6556506145240406,-0.7654989046316424,-1.0319009155273438,6.742071875,-3.526659045410156,-0.7786033701263254,0.6091332320700821,-0.8846554376520877,-0.2172318733594397,7.808772770722674,-5.164678040652042,-0.9728243852396472,0.4529284170372913,-0.829612653422409,-1.0319009155273438,6.375759020996093,-3.1794998046874996,-0.717583461926829,0.6091332320700821,-0.8846554376520877,0.9840941082254007,0.17672818889188088,-0.003045687156368754,-0.017794864337628225
1,1350.0,-1.438915197753906,6.742071875,-3.4069489624023435,-0.6900045951205064,0.31322664667470757,-0.9342174591591023,0.21817501101441217,7.006040801686372,-5.694034141542612,-0.8805765207949708,0.587165820954174,-0.7992426155371344,-1.438915197753906,6.742071875,-3.526659045410156,-0.7786033701263254,0.31322664667470757,-0.9342174591591023,-0.40523002073427156,7.8219102152385185,-4.740390932076015,-0.9372383518032579,0.38279592345282776,-0.8296519404720953,-1.438915197753906,6.742071875,-3.4069489624023435,-0.6900045951205064,0.31322664667470757,-0.9342174591591023,0.9844417040926707,0.17430884933209004,-0.00045623622190998903,-0.022152835848967684
1,1360.0,-2.4061726684570313,7.697358337402343,-3.5721488769531247,-0.7920597254279611,-0.0223828484225227,-1.0755758054465818,-0.30669452487987653,7.144304308829567,-5.269657088624715,-0.8628731617215689,0.4652560870788347,-0.854509253519024,-1.438915197753906,7.697358337402343,-3.5721488769531247,-0.7762052077953409,-0.0223828484225227,-0.9342174591591023,-0.5236170631602575,7.8290966570474785,-4.4075695400589145,-0.9074351313440221,0.3030857510403525,-0.823569416193217,-2.4061726684570313,7.697358337402343,-3.5721488769531247,-0.7920597254279611,-0.0223828484225227,-0.7656799397871308,0.9848297524659217,0.17132802717286677,0.0006998067212529127,-0.027505927243367007
1,1370.0,-1.6041151123046875,8.678981018066406,-4.163516687011718,-0.782600307344633,-0.326549770735733,-0.9343506903997125,-0.5661786423648387,7.451239650676936,-5.048429008302116,-0.8468185908461818,0.3068949155159212,-0.8704775408951617,-1.438915197753906,8.678981018066406,-4.163516687011718,-0.782600307344633,-0.0223828484225227,-0.9342174591591023,-0.575826226852134,7.817290793350743,-4.160004368079722,-0.8827760213239224,0.22562611148173828,-0.8113361577359381,-1.6041151123046875,8.678981018066406,-4.163516687011718,-0.782600307344633,-0.326549770735733,-0.9343506903997125,0.985191916036015,0.1683660034116331,0.00013371324106539831,-0.03239999372297749
1,1380.0,0.201112939453125,9.409212524414063,-4.733336682128906,-0.7762052077953409,-0.3032343036289385,-0.8013859122706789,-0.41272032600124603,7.842834225424362,-4.985410543067474,-0.8326959142360136,0.18486907168694924,-0.8566592151702652,0.15562310791015624,8.678981018066406,-4.163516687011718,-0.7920597254279611,-0.0223828484225227,-0.8013859122706789,-0.5776116946750065,7.772532964488916,-3.984206123202792,-0.8610981663100111,0.15925856091599483,-0.7944865850243205,0.201112939453125,9.409212524414063,-4.733336682128906,-0.7762052077953409,-0.3032343036289385,-0.8013859122706789,0.985540339472256,0.16544254648720436,-0.0006058678784561882,-0.03658737499265599
1,1390.0,0.5458779785156249,8.760383874511719,-4.422090466308593,-0.7943246565183354,-0.01785298624177406,-0.5900811646628157,-0.22100066509787183,8.026344155241834,-4.872746527715698,-0.825021662692478,0.1443246601012046,-0.8033436050687753,0.15562310791015624,8.678981018066406,-4.163516687011718,-0.7943246565183354,-0.01785298624177406,-0.6507013791404814,-0.5513487223028896,7.687900565966146,-3.8659923945895307,-0.8391725637309139,0.10863298969146794,-0.7756203381793765,0.5458779785156249,8.760383874511719,-4.422090466308593,-0.7943246565183354,-0.01785298624177406,-0.5900811646628157,0.9859218320193809,0.16247627297228653,-0.00014614185415343114,-0.03949152454820089
1,1400.0,0.15562310791015624,8.346186987304687,-3.6296097167968746,-0.917830016564041,0.041035222107958284,-0.479099541234474,-0.14567591049626624,8.090312721654405,-4.624119165531933,-0.8435833334667906,0.12366677250255534,-0.7384947923019151,0.15562310791015624,8.346186987304687,-3.6296097167968746,-0.917830016564041,-0.006794793271122963,-0.6507013791404814,-0.517060140912285,7.567926123794057,-3.794788249017822,-0.8130779456918759,0.07471873058876917,-0.7571893091167464,0.15562310791015624,8.346186987304687,-3.6296097167968746,-0.917830016564041,0.041035222107958284,-0.479099541234474,0.9864070254509754,0.15891252155986937,0.000574826218081274,-0.04180502610048275
1,1410.0,0.09337386474609374,7.548917834472656,-3.380612744140625,-0.9777840748386554,0.06448392045536303,-0.6507013791404814,-0.09786595544779425,7.982033744218055,-4.3754178812536715,-0.8704234817411636,0.11183020209311688,-0.7209361096696284,0.09337386474609374,7.548917834472656,-3.6296097167968746,-0.917830016564041,-0.006794793271122963,-0.6507013791404814,-0.48725423490581854,7.42788876983438,-3.7633496874875196,-0.778835855475967,0.056416184778968065,-0.7402832536063708,0.09337386474609374,7.548917834472656,-3.380612744140625,-0.9777840748386554,0.06448392045536303,-0.6507013791404814,0.9868816259614039,0.15505555531560664,0.0015663044934620847,-0.04494416308908803
1,1420.0,-0.5027823486328125,6.7037646484375,-3.4668040039062498,-0.9447427271673123,-0.006794793271122963,-0.7402327728305722,-0.17884923408479791,7.726379925061945,-4.193695105784187,-0.8852873308263934,0.0881052030202689,-0.7247954423018172,-0.5027823486328125,6.8785413696289055,-3.6296097167968746,-0.917830016564041,-0.006794793271122963,-0.7402327728305722,-0.4672083382658858,7.289671637139339,-3.764529482036112,-0.7333308636371155,0.05187253604794215,-0.7242638029286363,-0.5027823486328125,6.7037646484375,-3.4668040039062498,-0.9447427271673123,-0.006794793271122963,-0.7402327728305722,0.9872835430532985,0.15134341861700004,0.002345045808841464,-0.048588846637883244
1,1430.0,-0.5434837768554687,6.8785413696289055,-3.7517140014648436,-0.827632466670899,-0.1052526800821008,-0.7656799397871308,-0.2517761426389321,7.556812213975338,-4.105298884920319,-0.8737563579952946,0.049433626399794955,-0.73297234179888,-0.5027823486328125,6.7037646484375,-3.7517140014648436,-0.827632466670899,-0.006794793271122963,-0.7402327728305722,-0.45776725299643467,7.176586362265447,-3.7888966384162828,-0.6750623383294102,0.05885010410342014,-0.7074144603661217,-0.5434837768554687,6.8785413696289055,-3.7517140014648436,-0.827632466670899,-0.1052526800821008,-0.7656799397871308,0.9875657009071805,0.1481822651837429,0.00263291470095915,-0.05243157862301395
1,1440.0,-0.5386953735351562,6.148309863281249,-4.086902233886718,-0.7808683012166997,-0.036505359927209644,-0.8029846871580019,-0.30915998881817697,7.27511174383652,-4.101619554713599,-0.8551787466395757,0.03224582913439404,-0.7469748108707045,-0.5386953735351562,6.148309863281249,-4.086902233886718,-0.7808683012166997,-0.006794793271122963,-0.7402327728305722,-0.4582916147755627,7.109171867767404,-3.824899957602267,-0.6043896842082923,0.07440594007717512,-0.6878976197491354,-0.5386953735351562,6.148309863281249,-4.086902233886718,-0.7808683012166997,-0.036505359927209644,-0.8029846871580019,0.9877777567859909,0.14526757525716918,0.003283105671265226,-0.056406169829992664
1,1450.0,-0.14604630126953125,6.100425830078125,-4.61602080078125,-0.692935682413932,0.2090398165174888,-0.6810781019996194,-0.27653725130844786,7.040174561084842,-4.2044998039271295,-0.822730133794447,0.06760462661101299,-0.7337954690964875,-0.5434837768554687,6.100425830078125,-4.455609289550781,-0.692935682413932,0.2090398165174888,-0.7383675354620286,-0.4681895321353869,7.1023939145681485,-3.860992206989545,-0.5234565979085626,0.09462770618040042,-0.6643796934903969,-0.14604630126953125,6.100425830078125,-4.61602080078125,-0.692935682413932,0.2090398165174888,-0.6810781019996194,0.9879352467671104,0.142856866602515,0.004981302419706068,-0.05959069126905227
1,1460.0,-0.5674257934570313,5.556942053222656,-4.520252734375,-0.6040704449268924,0.39529709089062415,-0.6736171525254451,-0.33471495973816456,6.743528059512405,-4.267650390016704,-0.7789981960209361,0.13314311946693524,-0.721759805782279,-0.5674257934570313,6.100425830078125,-4.455609289550781,-0.6040704449268924,0.29457427298927197,-0.7383675354620286,-0.48665079110526727,7.162938629316818,-3.888632450886099,-0.43612248712202856,0.11519855817806453,-0.636183933240748,-0.5674257934570313,5.556942053222656,-4.520252734375,-0.6040704449268924,0.39529709089062415,-0.6736171525254451,0.9880070046335644,0.14093844444904516,0.007633514451431149,-0.0626118449529699
1,1470.0,-0.6009446166992187,5.97592734375,-4.455609289550781,-0.32681623321695347,0.6260535996275843,-0.7383675354620286,-0.3879608911303754,6.590007916359925,-4.3052421699235195,-0.6885618034601396,0.23172521549906508,-0.7250813517182291,-0.6009446166992187,6.100425830078125,-4.455609289550781,-0.32681623321695347,0.29457427298927197,-0.6810781019996194,-0.5121643716818984,7.286235673323379,-3.904703207595027,-0.3478364255248103,0.13286660106034878,-0.6032022804790852,-0.6009446166992187,5.97592734375,-4.455609289550781,-0.32681623321695347,0.6260535996275843,-0.7383675354620286,0.987832845233676,0.14045583279851828,0.011385990178656408,-0.06579352656657618
1,1480.0,-0.9840168823242187,7.254431030273437,-3.881000891113281,-0.08553445647178318,0.29457427298927197,-0.7980551312554225,-0.507172089369144,6.722892539142628,-4.220393914161472,-0.5679563340624684,0.24429502699710648,-0.7396761076256677,-0.6009446166992187,7.254431030273437,-3.881000891113281,-0.08553445647178318,0.29457427298927197,-0.6736171525254451,-0.5432647853832576,7.455099595577066,-3.91190449364292,-0.26505339436568864,0.14699001650165316,-0.56606868849489,-0.9840168823242187,7.254431030273437,-3.881000891113281,-0.08553445647178318,0.29457427298927197,-0.7980551312554225,0.9874675201546705,0.1410458381459877,0.013495976420832834,-0.06951134297170039
1,1490.0,-1.5945383056640625,8.226476904296874,-3.2321722412109373,0.20317764193063761,-0.2689938747921032,-0.43073660089295174,-0.7246453326281278,7.023609412173478,-4.022749579571366,-0.4137295388638472,0.14163724663926455,-0.6778882062791246,-0.6009446166992187,8.226476904296874,-3.5242648437499997,-0.05369218996593243,-0.019052067407266348,-0.5066784080407967,-0.5805698769721058,7.64258682133698,-3.916572942638008,-0.19397660884720394,0.1596679190002696,-0.5265558398590136,-1.5945383056640625,8.226476904296874,-3.2321722412109373,-0.19931393595294025,-0.2689938747921032,-0.43073660089295174,0.9870501571531838,0.14288171246358372,0.012516050756132968,-0.07183419785046033
1,1500.0,-0.16519991455078123,9.641450085449218,-3.2345664428710936,0.13509647797879773,-0.2693935685139339,-0.41155130224507513,-0.6127562490126585,7.547177546828626,-3.865112952231312,-0.30396433549531826,0.05943108360862486,-0.6246208254723147,-0.16519991455078123,8.86812294921875,-3.5242648437499997,-0.05369218996593243,-0.019052067407266348,-0.43073660089295174,-0.6288964752011891,7.819303617907708,-3.924555746734615,-0.13901205276933565,0.17361656336042988,-0.48738720973075667,-0.16519991455078123,9.641450085449218,-3.2345664428710936,0.13509647797879773,-0.2693935685139339,-0.41155130224507513,0.9866820592224244,0.14438650747206808,0.011385897004234669,-0.07403655730802133
1,1510.0,0.13646949462890623,9.919177478027343,-3.5242648437499997,-0.05369218996593243,-0.019052067407266348,-0.5066784080407967,-0.4629111002843455,8.02157753306837,-3.7969433305350497,-0.2539099063894411,0.04373445340544662,-0.6010323419860111,-0.16519991455078123,8.86812294921875,-3.5242648437499997,-0.05369218996593243,-0.019052067407266348,-0.41155130224507513,-0.6963639040025494,7.962549099878304,-3.9373880892334236,-0.10188075822209008,0.1893692587854532,-0.45143736113015354,0.13646949462890623,9.919177478027343,-3.5242648437499997,-0.05369218996593243,-0.019052067407266348,-0.5066784080407967,0.986394027944126,0.14504447931260775,0.011601385365990374,-0.07651358385729257
1,1520.0,0.0,8.86812294921875,-4.161122485351562,-0.08366921910323961,0.25726952561840083,-0.22436140918766803,-0.37032888022747645,8.190886616298448,-3.8697791614983523,-0.21986176893220083,0.08644146784803747,-0.5256981554263425,-0.16519991455078123,8.86812294921875,-4.161122485351562,-0.059154670830952855,0.25726952561840083,-0.27858652411604146,-0.7895771261024211,8.06327740280938,-3.9513498596877636,-0.08203585804474774,0.20430918957270652,-0.42121448833273156,-0.9840168823242187,8.86812294921875,-4.161122485351562,-0.08366921910323961,0.25726952561840083,-0.22436140918766803,0.986214249964058,0.14567784801762917,0.0130029821582487,-0.0773972881939364
1,1530.0,-0.2825157958984375,8.224082702636718,-4.484339709472656,-0.059154670830952855,0.4932220527391609,-0.27858652411604146,-0.35276626336166866,8.197525833566102,-3.992691271093213,-0.18772034931195125,0.16779758482626217,-0.4762758291642823,-0.2825157958984375,8.224082702636718,-4.3454760131835934,-0.08366921910323961,0.38130781062654745,-0.26246554400220073,-0.9090856482894233,8.12687152603184,-3.959851693129695,-0.07780101682730588,0.21395676712550724,-0.3986131310951568,-1.2617442749023438,8.224082702636718,-4.484339709472656,-0.059154670830952855,0.4932220527391609,-0.27858652411604146,0.9859736352353053,0.1465207472932501,0.01563109955737068,-0.07837939754892344
1,1540.0,-1.2617442749023438,7.879317663574218,-4.6351744140625,-0.11071516094712122,0.4792327724750843,-0.26246554400220073,-0.5345618656698037,8.133884199567726,-4.1211878996870706,-0.17231931163898528,0.2300846223560266,-0.43351377213186604,-1.2617442749023438,7.879317663574218,-4.3454760131835934,-0.11071516094712122,0.38130781062654745,-0.26246554400220073,-1.0486265133243653,8.167888246807255,-3.95736892538268,-0.0871801492931931,0.2140987567518936,-0.38449697340774697,-1.2617442749023438,7.879317663574218,-4.6351744140625,-0.11071516094712122,0.4792327724750843,-0.26246554400220073,0.9857677124864249,0.14710072105780608,0.018307908867968584,-0.07929826830667024
1,1550.0,-1.6136919189453125,7.417236743164062,-4.3454760131835934,-0.11990811654922875,0.38130781062654745,-0.22982389005268844,-0.7503878763249054,7.990554708286994,-4.1660455223863755,-0.16183707262103397,0.2603292600101308,-0.3927757957160305,-1.6136919189453125,7.879317663574218,-4.3454760131835934,-0.11990811654922875,0.38130781062654745,-0.27858652411604146,-1.1978575526019013,8.203287561684846,-3.942584952275107,-0.10814719573157773,0.2023585015320989,-0.37841508469654594,-1.6136919189453125,7.417236743164062,-4.3454760131835934,-0.11990811654922875,0.38130781062654745,-0.22982389005268844,0.9855831729523524,0.14759287366366378,0.02053073302205378,-0.08012890763296598
1,1560.0,-1.9297265380859374,7.704540942382812,-4.048595007324218,-0.12084073523350053,0.26552986253623656,-0.33001378299159956,-0.9862556086771119,7.933351955106158,-4.142555419373944,-0.1536378051435273,0.26136938051535197,-0.3802233931711443,-1.7190367919921874,7.879317663574218,-4.048595007324218,-0.12084073523350053,0.26552986253623656,-0.33001378299159956,-1.3465809143006662,8.247370868670272,-3.919290117445731,-0.1387373923609622,0.17860184745163404,-0.3786251554274637,-1.9297265380859374,7.704540942382812,-4.048595007324218,-0.12084073523350053,0.26552986253623656,-0.33001378299159956,0.985365716166107,0.14801797621376253,0.02228555634453346,-0.08153795496853984
1,1570.0,-1.8411410766601561,8.066065393066406,-3.727771984863281,-0.1578790201231512,0.1935849926066993,-0.4591148551429359,-1.1572327022737208,7.959894642698208,-4.0595987324718115,-0.15448604813945208,0.24781250293362145,-0.39600168556550264,-1.7190367919921874,8.066065393066406,-3.859453076171875,-0.1578790201231512,0.1935849926066993,-0.4591148551429359,-1.4880010786615916,8.309287000415699,-3.895052382843937,-0.17702079447124716,0.14446315060836612,-0.38236706599907555,-1.8411410766601561,8.066065393066406,-3.727771984863281,-0.1578790201231512,0.1935849926066993,-0.4591148551429359,0.9851257829199527,0.1482178887522441,0.02377937850668532,-0.0836252978351251
1,1580.0,-1.7190367919921874,8.571241943359375,-3.5410242553710933,-0.19931393595294025,0.13709494658795154,-0.5282618690196578,-1.2695935202174142,8.082164102830442,-3.955883837051668,-0.16345162570214972,0.22566899166448748,-0.4224537222563337,-1.7190367919921874,8.499415893554687,-3.8474820678710935,-0.19931393595294025,0.13709494658795154,-0.4591148551429359,-1.6196566078092316,8.393474642517115,-3.8787350177042637,-0.22098248013949917,0.1026675852991775,-0.38652871028799374,-1.7190367919921874,8.571241943359375,-3.5410242553710933,-0.19931393595294025,0.13709494658795154,-0.5282618690196578,0.9848880470338917,0.1481832970054352,0.025040593309492657,-0.08608259978110701
1,1590.0,-1.3263877197265623,8.499415893554687,-3.859453076171875,-0.20131240456209407,0.1151117918872596,-0.46071363003025895,-1.280952360119244,8.165614460975291,-3.9365976848757094,-0.1710237814741386,0.2035575517090419,-0.4301057038111188,-1.7190367919921874,8.571241943359375,-3.727771984863281,-0.20131240456209407,0.1151117918872596,-0.4591148551429359,-1.74213750314084,8.502038917573213,-3.8782867781292447,-0.26840084445110646,0.056580710918257865,-0.3884741161068516,-1.3263877197265623,8.499415893554687,-3.859453076171875,-0.20131240456209407,0.1151117918872596,-0.46071363003025895,0.984678080337214,0.1481409110059229,0.026107762862661792,-0.08821413326707615
1,1600.0,-1.695094775390625,8.8489693359375,-3.8474820678710935,-0.24634456388835996,0.054225114928373445,-0.4131500771323982,-1.3637808431735203,8.302285435967734,-3.918774561474786,-0.18608793795698286,0.17369106435290824,-0.4267145784753747,-1.7190367919921874,8.571241943359375,-3.5410242553710933,-0.24634456388835996,0.054225114928373445,-0.4131500771323982,-1.8565167865349848,8.636929158615153,-3.899961181930809,-0.3166998770050523,0.010051555305581023,-0.38646368493794303,-1.695094775390625,8.8489693359375,-3.8474820678710935,-0.24634456388835996,0.054225114928373445,-0.4131500771323982,0.9845248503805887,0.1478523131463858,0.02689029429686204,-0.09015222988351873
1,1610.0,-1.9512743530273435,8.767566479492187,-3.3710359375,-0.3394732010749276,-0.04436600312321464,-0.3478667692333736,-1.481279545144285,8.395341644672625,-3.809226836679829,-0.2167649905805718,0.13007965085768367,-0.4109450166269745,-1.9105729248046874,8.520963708496094,-3.3710359375,-0.3394732010749276,-0.04436600312321464,-0.3478667692333736,-1.9623568036617054,8.800891972864505,-3.9484898142879437,-0.3627919010807986,-0.03262847967100233,-0.37948291444379406,-1.9512743530273435,8.767566479492187,-3.3710359375,-0.3394732010749276,-0.04436600312321464,-0.3478667692333736,0.9844788441183593,0.14706552921965904,0.02720720390255663,-0.09183084261034345
1,1620.0,-1.9105729248046874,8.520963708496094,-3.1316157714843746,-0.44619142480374124,-0.1256370598954697,-0.2865803985526567,-1.5671382210763656,8.420466057437318,-3.6737046236407385,-0.26265027742520575,0.07893630870705301,-0.386072093012111,-1.9201497314453124,8.655039001464843,-3.3710359375,-0.44619142480374124,-0.1256370598954697,-0.2865803985526567,-2.0575060860590617,8.997196265820678,-4.026129739353405,-0.40310950342993995,-0.06689871653376682,-0.3667590538871703,-1.9105729248046874,8.520963708496094,-3.1316157714843746,-0.44619142480374124,-0.1256370598954697,-0.2865803985526567,0.9845469286757633,0.14572392976586135,0.027129454144721402,-0.09325167154815739
1,1630.0,-1.9201497314453124,8.303091357421874,-3.1004911499023438,-0.5398529869527499,-0.2564701381747393,-0.2507411948284983,-1.6377405231501552,8.39699111743423,-3.55906192889306,-0.3180908193307146,0.01185501933069455,-0.35900591337538845,-1.9512743530273435,8.655039001464843,-3.3710359375,-0.49988361476967363,-0.2564701381747393,-0.2507411948284983,-2.1385960504090997,9.227736581904542,-4.129914324204628,-0.4339529979202337,-0.0883484215569439,-0.34725005762258426,-1.9201497314453124,8.303091357421874,-3.1004911499023438,-0.5398529869527499,-0.2564701381747393,-0.2507411948284983,0.9847128357759005,0.14386416563123502,0.026431462465305065,-0.09457859534460313
1,1640.0,-2.0254946044921875,8.655039001464843,-3.440467785644531,-0.5157381324022939,-0.3964961720561164,-0.13909341519710536,-1.7152913394185616,8.448600694240351,-3.5353431002433546,-0.3576202819450305,-0.06981521894666765,-0.31502341373973186,-2.0254946044921875,8.655039001464843,-3.440467785644531,-0.49988361476967363,-0.2564701381747393,-0.2507411948284983,-2.2009136030569123,9.489806102016384,-4.248912960246936,-0.45198907696647034,-0.09340430941982683,-0.31919209556967176,-2.0254946044921875,8.655039001464843,-3.440467785644531,-0.5157381324022939,-0.3964961720561164,-0.13909341519710536,0.984926585127661,0.1420712436743281,0.024954989783677533,-0.09546010745065445
1,1650.0,-2.099714855957031,8.966285217285156,-4.458003491210937,-0.49988361476967363,-0.35479479374510686,-0.14309035241541299,-1.7921760427262556,8.552137598849313,-3.7198751784368715,-0.3860729485099591,-0.1268111339063555,-0.28063680147486814,-2.099714855957031,8.966285217285156,-4.458003491210937,-0.49988361476967363,-0.2564701381747393,-0.2507411948284983,-2.23801543971168,9.773377937454123,-4.3637175463413955,-0.45456703629912815,-0.08021883435215005,-0.27969592733373283,-2.099714855957031,8.966285217285156,-4.458003491210937,-0.49988361476967363,-0.35479479374510686,-0.14309035241541299,0.9851158681239319,0.14037631258196234,0.023679726193378957,-0.09633528846549246
1,1660.0,-2.480392919921875,9.478644372558593,-5.415684155273437,-0.44099540641994134,-0.23768453324869343,-0.25726952561840083,-1.9298194181653794,8.73743895359117,-4.059036973804185,-0.3970574400919556,-0.14898581377482312,-0.27596334630357466,-2.480392919921875,9.478644372558593,-5.415684155273437,-0.44099540641994134,-0.23768453324869343,-0.25726952561840083,-2.2419555158999693,10.060248602945599,-4.449558686484686,-0.4396854420160382,-0.04935865827849887,-0.22457564100805905,-2.480392919921875,9.478644372558593,-5.415684155273437,-0.44099540641994134,-0.23768453324869343,-0.25726952561840083,0.9851896338245055,0.13901137417246962,0.023055103205062193,-0.09770202388703185
1,1670.0,-2.8323405639648436,10.87206973876953,-5.9950809570312495,-0.37464624859603474,-0.08087136305042428,-0.4749693727755561,-2.1103236473252722,9.164365110626843,-4.446245770449598,-0.39257520179277144,-0.13536292362994334,-0.31576455159797095,-2.482787121582031,10.87206973876953,-5.415684155273437,-0.37464624859603474,-0.08087136305042428,-0.25726952561840083,-2.2046817410371653,10.32536418623356,-4.482723794064282,-0.4057248114905667,-0.0038184292613106744,-0.1489029556919825,-2.8323405639648436,10.87206973876953,-5.9950809570312495,-0.37464624859603474,-0.08087136305042428,-0.4749693727755561,0.9850875945606586,0.13802437690613398,0.023320437027868627,-0.10003929047728287
1,1680.0,-2.9735984619140625,11.92551846923828,-6.045359191894531,-0.3593246559258555,-0.019052067407266348,-0.4984180711229609,-2.2829786102430303,9.716595782349131,-4.766068454738584,-0.3859250926193883,-0.11210075238540794,-0.3522952555029689,-2.482787121582031,11.707646118164062,-5.415684155273437,-0.3726477799868809,-0.019052067407266348,-0.25726952561840083,-2.120700421398719,10.541165206078665,-4.4476889356815885,-0.3511517071891615,0.051575854050981466,-0.04851971821083979,-2.9735984619140625,11.92551846923828,-6.045359191894531,-0.3593246559258555,-0.019052067407266348,-0.4984180711229609,0.9849497341509093,0.1371413410019602,0.0238897965672572,-0.10244779843516488
1,1690.0,-2.482787121582031,11.745953344726562,-5.181052392578125,-0.3726477799868809,0.08260336917835759,-0.22422817794705777,-2.3229403125108306,10.122467294824617,-4.849065242306493,-0.38326963009288684,-0.07315992807265484,-0.32668183999178674,-2.482787121582031,11.745953344726562,-5.181052392578125,-0.3593246559258555,0.08260336917835759,-0.22422817794705777,-1.9898579604207607,10.684337208501724,-4.341681447659227,-0.2744295420450763,0.1108648624648865,0.0781819860907983,-2.482787121582031,11.745953344726562,-5.181052392578125,-0.3726477799868809,0.08260336917835759,-0.22422817794705777,0.9849455776568536,0.1362807421876709,0.02474664912373687,-0.10342809927737745
1,1700.0,-2.042254016113281,11.707646118164062,-5.006275671386718,-0.29057733577096434,0.08646707515605495,0.037437978611481425,-2.2668030532313206,10.439503059492507,-4.880507328122538,-0.36473117122850235,-0.04123452742691288,-0.2538578762711331,-2.042254016113281,11.755530151367187,-5.006275671386718,-0.29057733577096434,0.08646707515605495,0.037437978611481425,-1.8183327284634778,10.741083334156887,-4.175011785588513,-0.17429558802638065,0.16738806774274234,0.22938803645704772,-2.042254016113281,11.707646118164062,-5.006275671386718,-0.29057733577096434,0.08646707515605495,0.037437978611481425,0.9850198109714253,0.13586159879618193,0.025370452403374343,-0.10312098773387955
1,1710.0,-1.5801730957031248,12.014103930664062,-4.3239281982421875,-0.1628085760257306,0.18092802474872516,0.22689280275926285,-2.1294770617256815,10.754423233726818,-4.769191502146468,-0.324346652187948,0.003197983008214729,-0.15770774046505392,-1.5801730957031248,11.745953344726562,-4.3239281982421875,-0.1628085760257306,0.18092802474872516,0.22689280275926285,-1.6172464355147818,10.708698237382368,-3.968449059461131,-0.05022252655144263,0.21392750683951403,0.40021260155126387,-1.5801730957031248,12.014103930664062,-4.3239281982421875,-0.1628085760257306,0.18092802474872516,0.22689280275926285,0.9850928064775121,0.13614622589951508,0.0262252761787695,-0.10182633592997611
1,1720.0,-0.6847416748046875,11.755530151367187,-2.9831752685546875,-0.0860673814342242,0.4453920373600797,0.38383920419814227,-1.8405299843414828,10.954644617254893,-4.411988255428112,-0.27669079803720326,0.09163679387858774,-0.0493983515324147,-0.6847416748046875,11.707646118164062,-2.9831752685546875,-0.0860673814342242,0.4453920373600797,0.38383920419814227,-1.3998004593268805,10.595685253453698,-3.749431832856327,0.09722679678782477,0.2428884651039621,0.5834388896220635,-0.6847416748046875,11.755530151367187,-2.9831752685546875,-0.0860673814342242,0.4453920373600797,0.38383920419814227,0.9851559323448168,0.13696304043646698,0.028164766241042447,-0.09957740939992776
1,1730.0,-0.42377369384765623,10.022128149414062,-2.0781670410156248,-0.009459418083328047,0.8020520684737301,0.680411945796568,-1.5571787262427177,10.768141323686727,-3.945224012545615,-0.22324452204642822,0.23371984879761623,0.09656370793338184,-0.6847416748046875,10.022128149414062,-2.9831752685546875,-0.009459418083328047,0.6991975507226139,0.680411945796568,-1.1776557144163102,10.421245983007175,-3.5465086930334357,0.2660751638176597,0.24718905738258545,0.7699634508697879,-0.42377369384765623,10.022128149414062,-2.0781670410156248,-0.009459418083328047,0.8020520684737301,0.680411945796568,0.985246078553996,0.1383725678956535,0.031601415031993936,-0.09562712855623935
1,1740.0,-0.42377369384765623,8.700528833007812,-2.3582886352539063,0.21849923460081686,0.9125007669396308,0.9765849936731631,-1.3304977197637056,10.354618825550945,-3.6278369370872734,-0.13489577071697922,0.3694760324260191,0.27256796508133807,-0.6847416748046875,8.700528833007812,-2.961627453613281,0.21849923460081686,0.6991975507226139,0.9765849936731631,-0.9575872746280674,10.210900346357299,-3.3824124342285766,0.4524559252927,0.22220907986157729,0.9491639760720082,-0.42377369384765623,8.700528833007812,-2.3582886352539063,0.21849923460081686,0.9125007669396308,0.9765849936731631,0.9852634961546077,0.14099908788727183,0.03527773060378454,-0.09016974039889177
1,1750.0,-0.9097966308593749,8.214505895996094,-3.0071172851562498,0.4962863712731968,0.6991975507226139,1.180428791806852,-1.2463575019828395,9.926596239639975,-3.503693006701069,-0.00865934231894401,0.4354203360853381,0.45414013042644086,-0.8307879760742187,8.700528833007812,-2.961627453613281,0.4962863712731968,0.6991975507226139,1.180428791806852,-0.740463380100689,9.987484732749026,-3.269883461665692,0.650244068534926,0.16798416844278602,1.1095821477080927,-0.9097966308593749,8.214505895996094,-3.0071172851562498,0.4962863712731968,0.6991975507226139,1.180428791806852,0.9851577225672488,0.14492451819296484,0.0376957893028898,-0.08390573974097856
1,1760.0,-1.1156979736328125,8.655039001464843,-2.961627453613281,0.9422113335957175,0.2772542117099389,1.4867274139698263,-1.2202255963128341,9.672284792004948,-3.3952798960835118,0.1815147928639883,0.4037871112102583,0.6606575871351179,-0.8307879760742187,8.700528833007812,-3.0071172851562498,0.9422113335957175,0.2772542117099389,1.4867274139698263,-0.5235879628145199,9.762698106263551,-3.2127976392988207,0.8512919934850837,0.09013532458925799,1.239845853620134,-1.1156979736328125,8.655039001464843,-2.961627453613281,0.9422113335957175,0.2772542117099389,1.4867274139698263,0.9848622921844113,0.15091307835049497,0.03763950645122001,-0.0765165065208362
1,1770.0,-0.8307879760742187,8.844180932617187,-3.2704794677734372,1.3640214413677823,-0.16880398185319204,1.8425880576398153,-1.142338072265111,9.506664020127396,-3.370319810421497,0.4180161225647471,0.2892688925975683,0.8970436812360574,-0.8307879760742187,8.844180932617187,-3.2704794677734372,1.3640214413677823,-0.16880398185319204,1.8371255767747947,-0.3049075742370741,9.534269719957857,-3.209942666857394,1.0465371481136698,-0.0012584167612766553,1.329807275407204,-0.8307879760742187,8.844180932617187,-3.2704794677734372,1.3640214413677823,-0.16880398185319204,1.8425880576398153,0.9843529550716241,0.15885653992374751,0.03492305026563895,-0.06778082417144153
