activity,time_ms,ax,ay,az,gx,gy,gz,ax_ema,ay_ema,az_ema,gx_ema,gy_ema,gz_ema,ax_median,ay_median,az_median,gx_median,gy_median,gz_median,ax_lp,ay_lp,az_lp,gx_lp,gy_lp,gz_lp,ax_outlier,ay_outlier,az_outlier,gx_outlier,gy_outlier,gz_outlier,q0,q1,q2,q3
5,0.0,-3.1507693847656246,9.062053283691405,-4.469974499511719,-0.43420061314881836,-0.6475038293658353,-0.4186125579974186,-3.1507693847656246,9.062053283691405,-4.469974499511719,-0.43420061314881836,-0.6475038293658353,-0.4186125579974186,0.0,8.765172277832031,-3.835511059570312,-0.15601378275460764,-0.14961868320531543,-0.4186125579974186,-1.072711340326338,8.716929499801925,-4.186827062336366,-0.0970575566751049,-0.684944804773437,-0.38254356211712154,-3.1507693847656246,9.062053283691405,-4.469974499511719,-0.43420061314881836,-0.6475038293658353,-0.4186125579974186,0.9999928260379186,-0.0012264570786431493,-0.0029090938013784915,-0.0020930477744340037
5,10.0,-2.528276953125,9.435548742675781,-5.231330627441406,-0.19025421159144296,-1.2506416556084559,-1.2728912727903683,-3.0262708984374997,9.136752375488282,-4.622245725097656,-0.3854113328373433,-0.7681313946143594,-0.5894683009560086,-1.8914193115234375,8.765172277832031,-3.835511059570312,-0.19025421159144296,-0.14961868320531543,-0.4186125579974186,-1.0325221680494439,8.692112960048087,-4.163294165635357,-0.08138350439137719,-0.6848513184118876,-0.3311303521975306,-2.528276953125,9.435548742675781,-5.231330627441406,-0.19025421159144296,-1.2506416556084559,-1.2728912727903683,0.9999238036846517,-0.001205108906132726,-0.008913557752905638,-0.00845476348151258
5,20.0,3.660734338378906,8.765172277832031,-3.835511059570312,-0.15601378275460764,-0.14961868320531543,-1.025214396495906,-1.6888698510742186,9.062436355957033,-4.464898791992187,-0.3395318228207962,-0.6444288523325507,-0.6766175200639881,-2.528276953125,8.765172277832031,-3.835511059570312,-0.19025421159144296,-0.5835528338729132,-0.4186125579974186,-0.9937207006160492,8.661301035369295,-4.134708512055177,-0.06171420226552453,-0.6860226553396169,-0.25969772112705813,-1.6041151123046875,8.765172277832031,-3.835511059570312,-0.15601378275460764,-0.14961868320531543,-1.025214396495906,0.9998564418974274,-0.001029074041100275,-0.010060560789217842,-0.01359491520535458
5,30.0,-1.8914193115234375,8.034940771484374,-3.038241906738281,-0.2230290967815655,0.014921898948348467,-0.2459448701665292,-1.7293797431640625,8.856937239062502,-4.179567414941406,-0.31623127761295006,-0.5125587020763709,-0.5904829900844963,-1.8914193115234375,8.034940771484374,-3.835511059570312,-0.15601378275460764,-0.5835528338729132,-0.2459448701665292,-0.9659007175345067,8.629485115048961,-4.106326978731011,-0.040234542763056574,-0.6898548945167191,-0.17101188644421592,-1.8914193115234375,8.034940771484374,-3.038241906738281,-0.2230290967815655,0.014921898948348467,-0.2459448701665292,0.999841469940698,-0.0011528068035134278,-0.009763173053924908,-0.014845419334500086
5,40.0,-2.612074011230469,7.548917834472656,-3.7804444213867185,-0.04063552838612752,-0.5835528338729132,0.0019984686091538127,-1.9059185967773438,8.595333358144533,-4.099742816230469,-0.2611121277675856,-0.5267575284356794,-0.47198669834576634,-1.5610194824218748,8.034940771484374,-3.835511059570312,-0.04063552838612752,-0.5835528338729132,0.0019984686091538127,-0.9495306580449575,8.601978064851451,-4.0822648799362025,-0.020444501600096535,-0.6952750792943534,-0.0732639651495901,-2.612074011230469,7.548917834472656,-3.7804444213867185,-0.04063552838612752,-0.5835528338729132,0.0019984686091538127,0.999813184151858,-0.00044702334268742933,-0.012372643027848622,-0.014843000732984815
5,50.0,-1.5610194824218748,7.955932116699218,-4.80755693359375,0.5415849930806832,-1.8836232797477734,0.3068315471254154,-1.8369387739062502,8.46745310985547,-4.241305639703126,-0.10057270359793183,-0.7981306786980982,-0.31622304925153,-1.5610194824218748,8.034940771484374,-3.7804444213867185,0.09832465557036758,-0.5835528338729132,0.3068315471254154,-0.9423729349773842,8.579534063480182,-4.06223299757678,-0.006546007019566806,-0.6980199019353183,0.022920543885574296,-1.5610194824218748,7.955932116699218,-4.80755693359375,0.5415849930806832,-0.6489693730125481,0.3068315471254154,0.9996723016078396,0.0030879021110467534,-0.021663766520695415,-0.013282901745255855
5,60.0,2.013523596191406,9.713276135253906,-4.510675927734375,0.6465712106815635,-1.1136799402611146,0.9944379799149371,-1.066846299886719,8.716617714935158,-4.295179697309376,0.04885607925796724,-0.8612405310107015,-0.054090843418236556,-1.5610194824218748,9.066841687011719,-3.7804444213867185,0.09832465557036758,-0.5835528338729132,0.37811026085190136,-0.9475618103175993,8.556658163272918,-4.044095412335429,-0.0015491013173597554,-0.6945407431736951,0.10780256151874261,-1.1372457885742187,9.713276135253906,-4.510675927734375,0.6465712106815635,-1.1136799402611146,0.9944379799149371,0.9995616492338125,0.00710966426496932,-0.027521120409205728,-0.008279491919314699
5,70.0,-0.6943184814453125,9.880870251464843,-3.0310593017578125,0.09832465557036758,-0.5241317005607399,0.67095252771324,-0.9923407361984377,8.949468222241094,-4.042355618199063,0.05874979452044731,-0.7938187649207092,0.09091783080805875,-1.5610194824218748,9.066841687011719,-4.101267443847656,0.09832465557036758,-0.5241317005607399,0.37811026085190136,-0.9677091349733651,8.526239846591903,-4.027645801108788,-0.004863729943507854,-0.6859939558308219,0.17540091794022689,-0.6943184814453125,9.880870251464843,-3.0310593017578125,0.09832465557036758,-0.5241317005607399,0.67095252771324,0.999497875228188,0.008485482258184907,-0.030123111535136575,-0.004959047955502864
5,80.0,-1.6041151123046875,9.066841687011719,-3.306392492675781,-0.31975497746461,-0.3198882087052203,0.37811026085190136,-1.1146956114196875,8.972942915195219,-3.8951629930944067,-0.016951159876564155,-0.6990326536776115,0.14835631681682726,-1.6041151123046875,9.066841687011719,-4.101267443847656,-0.31975497746461,-0.45924808638354614,0.37811026085190136,-0.9965441116435668,8.487077948862826,-4.013172356457423,-0.012019597174298544,-0.6774000823447986,0.2251877650502339,-1.6041151123046875,9.066841687011719,-3.306392492675781,-0.31975497746461,-0.3198882087052203,0.37811026085190136,0.9994656289316123,0.007811171135162564,-0.031582315651643655,-0.0031622030159334466
5,90.0,-1.9512743530273435,8.042123376464843,-4.101267443847656,-0.5041470144692017,-0.23675191456442166,0.07514241970418335,-1.2820113597412188,8.786779007449145,-3.936383883245057,-0.11439033079509167,-0.6065765058549735,0.13371353739429848,-1.6041151123046875,8.042123376464843,-4.101267443847656,-0.31975497746461,-0.45924808638354614,0.07514241970418335,-1.0218137376873544,8.446809681050645,-3.9971303633889073,-0.01726145258274566,-0.6737947028621015,0.261184642127906,-1.9512743530273435,8.042123376464843,-4.101267443847656,-0.5041470144692017,-0.23675191456442166,0.07514241970418335,0.9994460048383159,0.006255174892249549,-0.03255916858540528,-0.002908047596513235
5,100.0,-1.7669208251953124,7.350199096679687,-4.7931917236328125,-0.3485329254364249,-0.45924808638354614,-0.120041347789839,-1.3789932528320377,8.499463025295253,-4.107745451322608,-0.16121884972335832,-0.5771108219606881,0.08296256035747099,-1.6041151123046875,8.042123376464843,-4.560954162597656,-0.31975497746461,-0.45924808638354614,0.07514241970418335,-1.0338084279952122,8.4177085194122,-3.9718705229081435,-0.016762722316946026,-0.677482418113402,0.2890700668161126,-1.7669208251953124,7.350199096679687,-4.7931917236328125,-0.3485329254364249,-0.45924808638354614,-0.120041347789839,0.9993776097106185,0.005507612581460837,-0.03465561462123226,-0.0036121721952125886
5,110.0,-1.1348515869140625,7.668627917480468,-4.778826513671874,-0.08273660041896784,-0.8031179183986121,-0.06888055139550141,-1.3301649196484429,8.333296003732297,-4.241961663792462,-0.14552239986248022,-0.6223122412482729,0.05259393800687652,-1.1348515869140625,8.042123376464843,-4.560954162597656,-0.08273660041896784,-0.6504349166592609,0.07514241970418335,-1.029596895354365,8.40967833997562,-3.930331855669517,-0.010125675495278352,-0.687639240422911,0.31324662033448974,-1.1348515869140625,7.668627917480468,-4.778826513671874,-0.08273660041896784,-0.8031179183986121,-0.06888055139550141,0.9992294395477713,0.0060859447702614825,-0.038565077333142295,-0.004027806796392657
5,120.0,-0.44532150878906246,8.070853796386718,-4.560954162597656,0.01785298624177406,-0.7230459427918494,0.31242725923104603,-1.153196237476567,8.280807562263181,-4.305760163553501,-0.11284732264162936,-0.6424589815569882,0.10456060225171043,-1.1348515869140625,8.066065393066406,-4.560954162597656,0.01785298624177406,-0.7003966318881062,0.31242725923104603,-1.0116463844980323,8.425849834207616,-3.870941842724293,0.000203855247775176,-0.701596280399288,0.3352239043456509,-0.44532150878906246,8.070853796386718,-4.560954162597656,0.01785298624177406,-0.7230459427918494,0.31242725923104603,0.9990816505510466,0.007099457278061045,-0.042179172727289826,-0.0025240100227193365
5,130.0,-0.7038952880859375,8.066065393066406,-4.271255761718749,0.15947779501047424,-0.6504349166592609,0.49055742792695584,-1.063336047598441,8.237859128423827,-4.298859283186551,-0.058382299111208645,-0.6440541685774428,0.18175996738675954,-1.0606313354492187,8.070853796386718,-4.271255761718749,0.15947779501047424,-0.7230459427918494,0.43420061314881836,-0.9836502364821312,8.462470899197353,-3.7994983201687273,0.010502543001922483,-0.7163088478232559,0.35395042144640654,-0.7038952880859375,8.066065393066406,-4.271255761718749,0.15947779501047424,-0.6504349166592609,0.49055742792695584,0.998929942903921,0.00878262795861597,-0.045407306857227894,-0.00010535693120146426
5,140.0,-1.1372457885742187,8.530540515136718,-3.5218706420898434,0.26126646283670846,-0.7003966318881062,0.43420061314881836,-1.0781179957935967,8.296395405766404,-4.14346155496721,0.005547453278374775,-0.6553226612395755,0.2322480965391713,-1.0606313354492187,8.530540515136718,-3.5218706420898434,0.15947779501047424,-0.7230459427918494,0.44992189954082834,-0.947305123426698,8.510926479299687,-3.7281147675978015,0.017250697263701945,-0.7287829079358393,0.3674551406631657,-1.1372457885742187,8.530540515136718,-3.5218706420898434,0.26126646283670846,-0.7003966318881062,0.43420061314881836,0.9987446502915003,0.010982911611497828,-0.0488294356158179,0.0020458211269125193
5,150.0,-1.0606313354492187,9.129090930175781,-2.6312276245117188,0.25726952561840083,-0.8333614100171398,0.44992189954082834,-1.074620663724721,8.46293451064828,-3.841014768876112,0.05589186774637999,-0.6909304109950885,0.27578285713950274,-1.1228805786132812,9.023746057128905,-2.8945898071289062,0.15947779501047424,-0.8333614100171398,0.46964012315114595,-0.9024697847031543,8.56015228072705,-3.6717827531387695,0.018254485843356337,-0.7358922487558871,0.37420063084851135,-1.0606313354492187,9.129090930175781,-2.6312276245117188,0.25726952561840083,-0.8333614100171398,0.44992189954082834,0.998502793105004,0.013160830633618578,-0.0529227502554154,0.004259953514043722
5,160.0,-1.1228805786132812,9.299079248046874,-2.427720483398437,0.1401592651219874,-0.9623292509278659,0.512673813868258,-1.0842726467024333,8.630163458128,-3.558355911780577,0.07274534722150147,-0.745210178981644,0.32316104848525384,-1.1228805786132812,9.023746057128905,-2.8945898071289062,0.1401592651219874,-0.8333614100171398,0.44992189954082834,-0.8492298788768724,8.599809007740527,-3.642952854736677,0.013308978777643907,-0.7346397898827746,0.3735091663359141,-1.1228805786132812,9.299079248046874,-2.427720483398437,0.1401592651219874,-0.9623292509278659,0.512673813868258,0.9982047189471343,0.014738935158200609,-0.057660097591806424,0.006739139988024929
5,170.0,-1.1372457885742187,9.023746057128905,-2.8945898071289062,-0.016120980113840756,-0.9202281788950256,0.46964012315114595,-1.0948672750767905,8.70887997792818,-3.4256026908502433,0.05497208175443303,-0.7802137789643203,0.3524568634184323,-1.0606313354492187,9.023746057128905,-2.8945898071289062,-0.016120980113840756,-0.8333614100171398,0.44992189954082834,-0.789477971647571,8.623517474534536,-3.646392484950135,0.004126237792078021,-0.7229808174221631,0.3656586322335911,-1.1372457885742187,9.023746057128905,-2.8945898071289062,-0.016120980113840756,-0.9202281788950256,0.46964012315114595,0.997902948654808,0.015547508310286715,-0.06219202345473299,0.008951662973281
5,180.0,-0.8978256225585937,8.836998327636719,-3.5817256835937497,-0.10685145496942385,-0.8274992354302887,0.3762450234833578,-1.0554589445731513,8.73450364786989,-3.456827289398945,0.022607374409661655,-0.7896708702575141,0.3572144954314174,-0.8978256225585937,8.836998327636719,-3.5817256835937497,-0.10685145496942385,-0.8274992354302887,0.3762450234833578,-0.7276399871439662,8.630120826471,-3.6775789131851337,-0.006461667679555356,-0.7005341939968713,0.3519619852628911,-0.8978256225585937,8.836998327636719,-3.5817256835937497,-0.10685145496942385,-0.8274992354302887,0.3762450234833578,0.9976159349282943,0.015930294729509967,-0.06629376124698867,0.01066814448268203
5,190.0,-0.40462008056640625,8.729259252929687,-4.151545678710937,-0.16360796346939213,-0.7105222061744855,0.2901776420491336,-0.9252911717718023,8.733454768881849,-3.5957709672613434,-0.014635693166149103,-0.7738411374409084,0.34380712475496067,-0.40462008056640625,8.729259252929687,-4.151545678710937,-0.10685145496942385,-0.7105222061744855,0.2901776420491336,-0.6705043443885305,8.622679376373444,-3.725463914849101,-0.015575256936140041,-0.6686439459768482,0.33455593555045166,-0.40462008056640625,8.729259252929687,-4.151545678710937,-0.16360796346939213,-0.7105222061744855,0.2901776420491336,0.9973552442440299,0.016053302491977256,-0.06987335935847132,0.011938254059734461
5,200.0,-0.21787235107421873,8.415618835449218,-4.1946413085937495,-0.14868606452104366,-0.5956768767684464,0.2398162330984575,-0.7838074076322856,8.669887582195324,-3.715545035527825,-0.041445767437128016,-0.738208285306416,0.32300894642366007,-0.21787235107421873,8.504204296874999,-4.177881896972656,-0.10685145496942385,-0.5956768767684464,0.2398162330984575,-0.6256237635209327,8.606630108756184,-3.777315345295415,-0.021138120105941537,-0.629857175406072,0.3158586321446758,-0.21787235107421873,8.415618835449218,-4.1946413085937495,-0.14868606452104366,-0.5956768767684464,0.2398162330984575,0.9971223576107521,0.016260321494711433,-0.07290076293976389,0.012964746833796587
5,210.0,-0.16280571289062498,8.197746484375,-4.177881896972656,-0.08859877500581903,-0.5806217465794877,0.19278560516303778,-0.6596070686839536,8.57545936263126,-3.8080124078167916,-0.050876368950866224,-0.7066909775610304,0.29696427817153564,-0.21787235107421873,8.504204296874999,-4.177881896972656,-0.08859877500581903,-0.5806217465794877,0.19278560516303778,-0.5988934878441208,8.58785872918198,-3.8225695208998194,-0.022261021012442938,-0.5872326245155662,0.29798960782066153,-0.16280571289062498,8.197746484375,-4.177881896972656,-0.08859877500581903,-0.5806217465794877,0.19278560516303778,0.9968824723387966,0.016782132754512312,-0.07585497227187174,0.013773871842446977
5,220.0,-0.16041151123046873,8.504204296874999,-4.237736938476562,-0.050094946469455566,-0.4985513023635711,0.13189892820415164,-0.5597679571932567,8.561208349480008,-3.893957313948746,-0.05072008445458409,-0.6650630425215386,0.26395120817805884,-0.21787235107421873,8.494627490234375,-4.177881896972656,-0.050094946469455566,-0.4985513023635711,0.19278560516303778,-0.5927372654317967,8.570904252697852,-3.854386279071593,-0.019158556387891875,-0.5438401512509244,0.2823253769892993,-0.16041151123046873,8.504204296874999,-4.237736938476562,-0.050094946469455566,-0.4985513023635711,0.13189892820415164,0.9966661229412455,0.017512640920371848,-0.07839386885214226,0.014295038148020507
5,230.0,-0.22505495605468748,8.623914379882812,-4.151545678710937,-0.03677182240843015,-0.36998315517467584,0.1360290966630695,-0.49282535696554286,8.57374955556057,-3.9454749869011843,-0.047930432045353306,-0.606047065052166,0.238366785875061,-0.22505495605468748,8.494627490234375,-4.151545678710937,-0.03677182240843015,-0.36998315517467584,0.19278560516303778,-0.6054110165089314,8.558292400037129,-3.869727922856635,-0.012802965018342442,-0.5024675989789646,0.2691634677519955,-0.22505495605468748,8.623914379882812,-4.151545678710937,-0.03677182240843015,-0.36998315517467584,0.1360290966630695,0.9964934539292282,0.018298518363637172,-0.0802838542153533,0.014848005058615577
5,240.0,-0.6009446166992187,8.494627490234375,-3.8762124877929685,-0.0159877488732305,-0.32002143994583054,0.30243491618527696,-0.5144492089122781,8.557925142495332,-3.9316224870795415,-0.041541895410928745,-0.5488419400308989,0.25118041193710416,-0.6009446166992187,8.494627490234375,-4.151545678710937,-0.0159877488732305,-0.3550612562263274,0.30243491618527696,-0.6312075608947036,8.551324378238101,-3.8688751766457417,-0.00459804095206696,-0.46526877608079675,0.25761385606771303,-0.6009446166992187,8.494627490234375,-3.8762124877929685,-0.0159877488732305,-0.32002143994583054,0.30243491618527696,0.9963254516367998,0.01911756265778781,-0.08189279230207733,0.016238343133504522
5,250.0,-0.9504980590820312,8.291120349121094,-4.082113830566406,0.018252679963604822,-0.34386983201506605,0.4331347632239363,-0.6016589789462288,8.504564183820484,-3.961720755776915,-0.02958298033602203,-0.5078475184277323,0.2875712821944706,-0.9504980590820312,8.494627490234375,-4.082113830566406,0.018252679963604822,-0.34386983201506605,0.30243491618527696,-0.6617264832331126,8.550829630925366,-3.8545230703509334,0.0038227153844209182,-0.433357182258528,0.2460695271971846,-0.9504980590820312,8.291120349121094,-4.082113830566406,0.018252679963604822,-0.34386983201506605,0.4331347632239363,0.9961301866882647,0.020054100034961397,-0.08359454856839096,0.018287582941372938
5,260.0,-1.3263877197265623,8.415618835449218,-4.151545678710937,0.05315926500349141,-0.3550612562263274,0.3661194491969785,-0.7466047271022955,8.486775114146232,-3.9996857403637196,-0.013034531268119343,-0.4772902659874514,0.30328091559497217,-0.9504980590820312,8.494627490234375,-3.8762124877929685,0.05315926500349141,-0.34386983201506605,0.30243491618527696,-0.6883520219518026,8.556804161577537,-3.8311194770235786,0.010765997874039451,-0.4066781827607592,0.23321742321921704,-1.3263877197265623,8.415618835449218,-4.151545678710937,0.05315926500349141,-0.3550612562263274,0.3661194491969785,0.9959287242787098,0.02119023366241139,-0.08530214884334288,0.020012335111685018
5,270.0,-1.1563994018554686,8.542511523437499,-3.6631285400390623,0.10938284854101868,-0.3342771826911277,0.22156355313485268,-0.8285636620529302,8.497922396004485,-3.9323743002987883,0.011448944693708262,-0.4486876493281867,0.2869374431029483,-0.9504980590820312,8.542511523437499,-3.6631285400390623,0.0752756509447936,-0.34919908163947616,0.22156355313485268,-0.7051332214171285,8.567790667686156,-3.804884762622199,0.014715514642358561,-0.3842289194451825,0.2188161002584361,-1.1563994018554686,8.542511523437499,-3.6631285400390623,0.10938284854101868,-0.3342771826911277,0.22156355313485268,0.9957371541097624,0.02266652579111708,-0.08689692623227015,0.021039789574406952
5,280.0,-0.8810662109374999,8.578424548339843,-3.2561142578125,0.10658499248820334,-0.34919908163947616,0.10045635542013165,-0.8390641718298442,8.514022826471557,-3.7971222918015313,0.03047615425260728,-0.42878993579044467,0.24964122556638496,-0.8810662109374999,8.578424548339843,-3.421314172363281,0.0752756509447936,-0.3550612562263274,0.10045635542013165,-0.7104792730619857,8.581044081255413,-3.7831381628635268,0.014640346677836948,-0.36435970960706093,0.20356702409634003,-0.8810662109374999,8.578424548339843,-3.2561142578125,0.10658499248820334,-0.34919908163947616,0.10045635542013165,0.9955445163328422,0.024184321824926955,-0.08857641579421505,0.021458171928802856
5,290.0,-0.6584054565429687,8.817844714355468,-3.19865341796875,0.0752756509447936,-0.39329862228147033,0.035972434964768624,-0.8029324287724691,8.57478720404834,-3.677428517034975,0.039436053591044545,-0.42169167308864985,0.2069074674460617,-0.6584054565429687,8.772354882812499,-3.421314172363281,0.0752756509447936,-0.39329862228147033,0.10045635542013165,-0.7066899938019109,8.59333975410082,-3.771926107434507,0.01025516027857333,-0.3450382329491186,0.1882788969530677,-0.6584054565429687,8.817844714355468,-3.19865341796875,0.0752756509447936,-0.39329862228147033,0.035972434964768624,0.9953353603619288,0.0255801961326197,-0.09049583611218386,0.021533174994942665
5,300.0,-0.3399766357421875,8.772354882812499,-3.421314172363281,0.029577335415476427,-0.40635528386127523,0.08420214406568063,-0.7103412701664128,8.614300739801172,-3.6262056481006364,0.037464309955930926,-0.41862439524317496,0.1823664027699855,-0.6584054565429687,8.817844714355468,-3.421314172363281,0.029577335415476427,-0.3959632470936754,0.10045635542013165,-0.6978999304174697,8.601963009097984,-3.7734853086201925,0.0020677283916093045,-0.3241898931108839,0.17302237956130612,-0.3399766357421875,8.772354882812499,-3.421314172363281,0.029577335415476427,-0.40635528386127523,0.08420214406568063,0.9951116986658738,0.026728113153262352,-0.09253153090106511,0.021822716024614892
5,310.0,-0.5410895751953124,8.834604125976561,-3.725377783203125,0.013189892820415163,-0.42460796382488003,0.2781868303942107,-0.6764909311721928,8.65836141703625,-3.6460400751211344,0.03260942652882777,-0.419821108959516,0.20153048829483056,-0.6272808349609375,8.817844714355468,-3.725377783203125,0.013189892820415163,-0.3959632470936754,0.25260643219704193,-0.6877814306465881,8.605597352576691,-3.7855478133402602,-0.008794583387171418,-0.3001378670734861,0.15688800508580017,-0.5410895751953124,8.834604125976561,-3.725377783203125,0.013189892820415163,-0.42460796382488003,0.2781868303942107,0.9948557269447925,0.027706244374559985,-0.0946707619240543,0.023062814757188868
5,320.0,-0.6584054565429687,8.834604125976561,-3.9145197143554684,-0.030909647821578966,-0.3959632470936754,0.3394732010749276,-0.672873836246348,8.693609958824313,-3.6997360029680015,0.019905611658746422,-0.41504953658634797,0.22911903085085,-0.6177040283203125,8.772354882812499,-3.9145197143554684,-0.030909647821578966,-0.3959632470936754,0.25260643219704193,-0.6782594879718753,8.60485413536851,-3.8026602320446257,-0.02083001874609487,-0.2720188123541765,0.13861440593766616,-0.6584054565429687,8.834604125976561,-3.9145197143554684,-0.030909647821578966,-0.3959632470936754,0.3394732010749276,0.9946061512215371,0.02843204644558564,-0.09667338643853696,0.024586155488456267
5,330.0,-0.6272808349609375,8.508992700195313,-4.055777612304687,-0.10112251162318292,-0.32428483964535865,0.25260643219704193,-0.663755235989266,8.656686507098513,-3.7709443248353387,-0.004300012997639449,-0.3968965971981501,0.23381651112008842,-0.6272808349609375,8.508992700195313,-4.055777612304687,-0.10112251162318292,-0.32428483964535865,0.25260643219704193,-0.6696972251898331,8.602299157860461,-3.8183257590746154,-0.03241226181431716,-0.24004154593528454,0.11766929469508904,-0.6272808349609375,8.508992700195313,-4.055777612304687,-0.10112251162318292,-0.32428483964535865,0.25260643219704193,0.9944056692450285,0.028841426211387296,-0.0983240962454634,0.025649740835977104
5,340.0,-0.6177040283203125,8.353369592285155,-4.314351391601562,-0.15561408903277688,-0.18132771847055593,0.08180398173469607,-0.6545449944554753,8.596023124135842,-3.879625738188584,-0.03456282820466693,-0.3537828214526313,0.20341400524300995,-0.6584054565429687,8.40843623046875,-4.055777612304687,-0.10112251162318292,-0.18132771847055593,0.08180398173469607,-0.6616538923959263,8.601658254340395,-3.8270012529034876,-0.04212477682310498,-0.20544475916953112,0.09485964956768288,-0.6177040283203125,8.353369592285155,-4.314351391601562,-0.15561408903277688,-0.18132771847055593,0.08180398173469607,0.9943019426553872,0.029045169063267623,-0.09925501303932734,0.025854735975680186
5,350.0,-0.7445967163085937,8.13310303955078,-4.086902233886718,-0.11990811654922875,-0.07620826962906539,-0.045165390566876164,-0.672555338826099,8.50343910721883,-3.921081037328211,-0.0516318858735793,-0.2982679110879181,0.15369812608103275,-0.7445967163085937,8.40843623046875,-4.055777612304687,-0.10112251162318292,-0.09033078113375233,-0.045165390566876164,-0.653333102006136,8.60610475077883,-3.82567495376396,-0.049152193152165194,-0.17005577514894554,0.07197728050526997,-0.7445967163085937,8.13310303955078,-4.086902233886718,-0.11990811654922875,-0.07620826962906539,-0.045165390566876164,0.9942628125886169,0.029475498268954427,-0.09962172060472847,0.025459129775445996
5,360.0,-0.7637503295898437,8.40843623046875,-3.9145197143554684,-0.041967840792230066,-0.05542419609386574,-0.07594180714784488,-0.6907943369788478,8.484438531868815,-3.9197687727336628,-0.049699076857309454,-0.24969916808910766,0.10777013943525723,-0.7445967163085937,8.40843623046875,-3.9145197143554684,-0.041967840792230066,-0.09033078113375233,-0.045165390566876164,-0.6439583693589847,8.61646268602946,-3.8145637520610256,-0.05345781608617063,-0.1356142163241732,0.05085609987084493,-0.7637503295898437,8.40843623046875,-3.9145197143554684,-0.041967840792230066,-0.05542419609386574,-0.07594180714784488,0.9942263705854397,0.030305717230559522,-0.09986445602469972,0.024951512149293118
5,370.0,-0.7613561279296874,8.611943371582031,-3.67749375,0.014788667707738214,-0.09033078113375233,-0.04889586530396328,-0.7049066951690158,8.509939499811459,-3.8713137681869303,-0.036801527944299924,-0.21782549069803658,0.07643693848741315,-0.7445967163085937,8.611943371582031,-3.67749375,-0.041967840792230066,-0.07620826962906539,-0.045165390566876164,-0.6333425685559921,8.630551128158071,-3.796423787987288,-0.055527843795439916,-0.10328766464751336,0.032569336642835,-0.7613561279296874,8.611943371582031,-3.67749375,0.014788667707738214,-0.09033078113375233,-0.04889586530396328,0.9941597949220424,0.03140865459450371,-0.10027264104409309,0.024600732411211024
5,380.0,-0.51714755859375,9.18655177001953,-3.5003228271484375,0.0014655436467127959,-0.09632618696121377,0.02837825424998414,-0.6673548678539627,8.645261953853074,-3.7971155799792315,-0.029148113626097382,-0.19352562995067205,0.06682520163992735,-0.5243301635742187,8.700528833007812,-3.6439749267578123,-0.041967840792230066,-0.06155283316193743,0.02837825424998414,-0.6222090597418795,8.6443511908361,-3.7748807008826493,-0.05584155228022812,-0.07367116265553479,0.017210349870641684,-0.51714755859375,9.18655177001953,-3.5003228271484375,0.0014655436467127959,-0.09632618696121377,0.02837825424998414,0.9940792252569683,0.03240747230601196,-0.10074622904933693,0.024626144310048823
5,390.0,-0.5147533569335937,9.14824454345703,-3.4452561889648434,-0.0703460950422142,-0.06155283316193743,0.07474272598235258,-0.6368345656698889,8.745858471773866,-3.7267437017763543,-0.03738770990932075,-0.16713107059292515,0.0684087065084124,-0.5243301635742187,8.700528833007812,-3.6439749267578123,-0.0703460950422142,-0.06155283316193743,0.02837825424998414,-0.6117979890435492,8.654627870814487,-3.7526425344335976,-0.05449404965257098,-0.047116034341447094,0.004244496202369606,-0.5147533569335937,9.14824454345703,-3.4452561889648434,-0.0703460950422142,-0.06155283316193743,0.07474272598235258,0.994021303761198,0.03302155143597289,-0.10106275109332855,0.02485045575230765
5,400.0,-0.5243301635742187,8.700528833007812,-3.6439749267578123,-0.11084839218773147,-0.019584992369707364,0.05076110267250684,-0.6143336852507549,8.736792544020656,-3.710189946772646,-0.052079846365002895,-0.1376218549482816,0.06487918574123129,-0.5243301635742187,8.700528833007812,-3.6439749267578123,-0.0703460950422142,-0.0383705972957532,0.02837825424998414,-0.6030566140566502,8.661282829266593,-3.7303161380006955,-0.051257241718619014,-0.02400962114693945,-0.006891818430892442,-0.5243301635742187,8.700528833007812,-3.6439749267578123,-0.11084839218773147,-0.019584992369707364,0.05076110267250684,0.993993430434095,0.03344117781303521,-0.101176424246343,0.02494151272599675
5,410.0,-0.5434837768554687,8.346186987304687,-3.7708676147460936,-0.09819142432975733,0.0013323124061025418,0.0031975497746461,-0.6001637035716978,8.658671432677462,-3.722325480367336,-0.06130216195795379,-0.10983102147740478,0.05254285854791426,-0.5434837768554687,8.501810095214843,-3.7708676147460936,-0.0703460950422142,-0.019584992369707364,0.0031975497746461,-0.5961505697556746,8.667331281550036,-3.70640503720067,-0.04595725768177078,-0.004827632748428861,-0.016361729573952804,-0.5434837768554687,8.346186987304687,-3.7708676147460936,-0.09819142432975733,0.0013323124061025418,0.0031975497746461,0.9939795284113806,0.03394513305121207,-0.10117851710929278,0.024805900846156907
5,420.0,-0.6488286499023437,8.410830432128906,-3.864241479492187,-0.035972434964768624,-0.0383705972957532,-0.026779479362661087,-0.609896692837827,8.609103232567751,-3.7507086801923064,-0.05623621655931676,-0.09553893664107448,0.03667839096579919,-0.5458779785156249,8.501810095214843,-3.7708676147460936,-0.035972434964768624,-0.0006661562030512709,-0.026779479362661087,-0.5905419592286001,8.676544754990172,-3.6784194388898923,-0.038778781898497164,0.00990545712884713,-0.023878799490404213,-0.6488286499023437,8.410830432128906,-3.864241479492187,-0.035972434964768624,-0.0383705972957532,-0.026779479362661087,0.9939391864499871,0.03477832533372644,-0.1013551635765851,0.02454572350701414
5,430.0,-0.5458779785156249,8.501810095214843,-3.919308117675781,0.006128637068071692,-0.0006661562030512709,-0.03410719759622507,-0.5970929499733866,8.58764460509717,-3.7844285676890017,-0.043763245833839066,-0.07656438055346984,0.022521273253394338,-0.5482721801757812,8.501810095214843,-3.7708676147460936,-0.017453292519943295,0.0013323124061025418,-0.03410719759622507,-0.5853566671391374,8.691103672874176,-3.644342949855899,-0.030233750257942196,0.01955624156452918,-0.028903830584760933,-0.5458779785156249,8.501810095214843,-3.919308117675781,0.006128637068071692,-0.0006661562030512709,-0.03410719759622507,0.9939092662783793,0.03581971188801405,-0.10135059670750636,0.024277050753040333
5,440.0,-0.5770026000976562,8.705317236328124,-3.6583401367187496,0.0074609494741742334,0.0430336907171121,-0.05635681477813752,-0.5930748799982405,8.611179131343361,-3.7592108814949516,-0.03351840677223641,-0.052644766299353454,0.006745655647087966,-0.5770026000976562,8.705317236328124,-3.6583401367187496,-0.017453292519943295,0.0430336907171121,-0.05635681477813752,-0.5796574962648586,8.710921510938373,-3.6036952376339815,-0.020883117810611182,0.023288848332317785,-0.030852210812631734,-0.5770026000976562,8.705317236328124,-3.6583401367187496,0.0074609494741742334,0.0430336907171121,-0.05635681477813752,0.9939037525157327,0.036873546971865324,-0.1011146697757893,0.023905978854503403
5,450.0,-0.5482721801757812,8.8489693359375,-3.6439749267578123,-0.017453292519943295,0.08180398173469607,-0.06008728951522463,-0.5841143400337486,8.658737172262189,-3.7361636905475244,-0.030305383921777788,-0.025755016692543552,-0.0066209333853745524,-0.5770026000976562,8.769960681152343,-3.6439749267578123,-0.015188361429568975,0.08180398173469607,-0.05635681477813752,-0.5724498648882733,8.734384086444212,-3.5577342934324294,-0.011108997268763746,0.020161900389183956,-0.029237580114632598,-0.5482721801757812,8.8489693359375,-3.6439749267578123,-0.017453292519943295,0.08180398173469607,-0.06008728951522463,0.9939213933527181,0.037800740881658586,-0.10069051453925365,0.02351144628493531
5,460.0,-0.584185205078125,8.813056311035156,-3.5769372802734374,-0.0334410413931738,0.10485298636027003,-0.06741500774878861,-0.5841285130426239,8.689601000016783,-3.7043184084927074,-0.03093251541605699,0.00036658391801916435,-0.018779748258057366,-0.584185205078125,8.769960681152343,-3.5769372802734374,-0.015188361429568975,0.08180398173469607,-0.05635681477813752,-0.5626191845438473,8.759534473555146,-3.508993336311002,-0.001129488798309922,0.009442492913930994,-0.02378990637027249,-0.584185205078125,8.813056311035156,-3.5769372802734374,-0.0334410413931738,0.10485298636027003,-0.06741500774878861,0.9939538767958336,0.03864940254993172,-0.10014662277191992,0.023077444235549662
5,470.0,-0.7038952880859375,8.769960681152343,-3.5601778686523438,-0.015188361429568975,0.09859111805158809,-0.03543951000232761,-0.6080818680512867,8.705672936243895,-3.675490300524635,-0.02778368461875939,0.020011490744732952,-0.022111700606911415,-0.6512228515624999,8.769960681152343,-3.5601778686523438,-0.015188361429568975,0.08180398173469607,-0.050627871431896586,-0.5490797607083935,8.784840521670434,-3.460875304662841,0.008811146113366385,-0.00902467527585303,-0.014546070382899245,-0.7038952880859375,8.769960681152343,-3.5601778686523438,-0.015188361429568975,0.09859111805158809,-0.03543951000232761,0.9939761771486314,0.039573303259311916,-0.09962418096492964,0.022810863578699204
5,480.0,-0.6512228515624999,8.611943371582031,-3.4548329956054684,0.0025313935715948295,0.07900612568188073,-0.050627871431896586,-0.6167100647535294,8.686927023311522,-3.631358839540802,-0.021720668980688546,0.031810417732162505,-0.02781493477190845,-0.6512228515624999,8.769960681152343,-3.4548329956054684,0.0025313935715948295,0.07900612568188073,-0.03543951000232761,-0.5312300016360793,8.809095546013914,-3.4175645562160097,0.018278193424183194,-0.034524743471119154,-0.001884638593951567,-0.6512228515624999,8.611943371582031,-3.4548329956054684,0.0025313935715948295,0.07900612568188073,-0.050627871431896586,0.9939853476414134,0.040595079675399826,-0.09919702270937186,0.02247484963070062
5,490.0,-0.689530078125,8.717288244628906,-3.258508459472656,0.046764165454199216,-0.020650842294589397,-0.03503981628049685,-0.6312740674278235,8.692999267574999,-3.5567887635271727,-0.008023702093710994,0.021318165726812124,-0.029259911073626133,-0.6512228515624999,8.769960681152343,-3.258508459472656,0.046764165454199216,-0.020650842294589397,-0.03503981628049685,-0.5095072550240066,8.830675893242113,-3.383860612181033,0.026634028282761894,-0.06534366915177621,0.013454498725512657,-0.689530078125,8.717288244628906,-3.258508459472656,0.046764165454199216,-0.020650842294589397,-0.03503981628049685,0.9939337737169035,0.0418398675101488,-0.09925430778482239,0.02221849089754191
5,500.0,-0.5626373901367188,8.801085302734375,-3.1004911499023438,0.07114548248587572,-0.13203215944476188,0.05742266470301955,-0.6175467319696026,8.714616474606874,-3.465529240802207,0.007810134822206349,-0.009351899307502676,-0.011923395918296996,-0.5626373901367188,8.801085302734375,-3.258508459472656,0.06275191432742971,-0.13203215944476188,0.0526263400410504,-0.48570675261887886,8.846895499617549,-3.3645147478434856,0.033175391170023404,-0.09891616179990234,0.030362326067755963,-0.5626373901367188,8.801085302734375,-3.1004911499023438,0.07114548248587572,-0.13203215944476188,0.05742266470301955,0.9938086048210462,0.0431722601967214,-0.09989183289226146,0.022410592463763583
5,510.0,-0.47884033203125,8.963891015625,-3.1100679565429687,0.09872434929219834,-0.29670597283903605,0.09619295572060352,-0.5898054519819321,8.7644713828105,-3.39443698395036,0.02599297771620475,-0.06682271401380935,0.009699874409483108,-0.47884033203125,8.963891015625,-3.2225954345703123,0.06275191432742971,-0.2087733540362683,0.0526263400410504,-0.4629065819957109,8.854088339695776,-3.363137400408491,0.037354484826447536,-0.132341477293652,0.047509634972494656,-0.47884033203125,8.963891015625,-3.1100679565429687,0.0025313935715948295,-0.29670597283903605,0.09619295572060352,0.9935866399059119,0.04464045520408715,-0.1013618829131296,0.022772515275147714
5,520.0,-0.009576806640625,9.208099584960937,-3.3710359375,0.06275191432742971,-0.25247320095643166,0.0526263400410504,-0.4737597229136707,8.853197023240588,-3.389756774660288,0.03334476503844974,-0.10395281140233381,0.01828516753579657,-0.47884033203125,9.150638745117186,-3.2225954345703123,0.07114548248587572,-0.22289586554095522,0.05742266470301955,-0.4447702012693826,8.848508617939551,-3.381406504918267,0.038977077063333226,-0.16312991990646203,0.06363226587625159,-0.5482721801757812,9.208099584960937,-3.3710359375,0.06275191432742971,-0.25247320095643166,0.0526263400410504,0.9933907097151374,0.04594508288562454,-0.10266024198873674,0.022908992232365696
5,530.0,-0.2059013427734375,9.267954626464844,-3.2225954345703123,0.0006661562030512709,-0.2087733540362683,0.04743032165725049,-0.42018804688562406,8.93614854388544,-3.3563245066422933,0.02680904327137005,-0.12491691992912071,0.024114198360087352,-0.36152445068359373,9.150638745117186,-3.2225954345703123,0.06275191432742971,-0.23715160828625242,0.09619295572060352,-0.4340891174006734,8.827820577302328,-3.4191512078289543,0.03822510576131525,-0.18970451456594792,0.07764075787879064,-0.2059013427734375,9.267954626464844,-3.2225954345703123,0.0006661562030512709,-0.2087733540362683,0.04743032165725049,0.993231691845473,0.04693943997046249,-0.10372445724447134,0.022994178793308947
5,540.0,-0.48123453369140623,9.150638745117186,-3.2704794677734372,0.08766615632154724,-0.22289586554095522,0.21969831576630913,-0.4323973442467805,8.97904658413179,-3.3391554988685224,0.03898046588140549,-0.1445127090514876,0.06323102184133171,-0.33758243408203126,9.150638745117186,-3.2704794677734372,0.028644716731204646,-0.23715160828625242,0.0526263400410504,-0.43155705985563236,8.792626921591788,-3.4747350396298122,0.0354869419766377,-0.21131547976752496,0.08855015261349307,-0.48123453369140623,9.150638745117186,-3.2704794677734372,0.08766615632154724,-0.22289586554095522,0.053825421206542684,0.9930248232159234,0.048278119911789645,-0.10486280283488254,0.0239732391716157
5,550.0,-0.36152445068359373,8.655039001464843,-3.076549133300781,0.028511485490594395,-0.23715160828625242,0.19198621771937627,-0.41822276553414317,8.9142450675984,-3.286634225754974,0.036886669803243274,-0.16304048889844058,0.08898206101694062,-0.36152445068359373,8.84178673095703,-3.2704794677734372,0.028511485490594395,-0.23715160828625242,0.11124808590956223,-0.4359989393631071,8.747009722666164,-3.5447852317089543,0.03123723643845584,-0.22764848638136048,0.09565509783485311,-0.36152445068359373,8.655039001464843,-3.076549133300781,0.028511485490594395,-0.23715160828625242,0.19198621771937627,0.9928233644928461,0.04933874555620923,-0.10608248014754558,0.02477826688431626
5,560.0,-0.33758243408203126,8.128314636230469,-3.438073583984375,0.028644716731204646,-0.2680612561078314,0.04596477801053769,-0.4020946992437208,8.757058981324814,-3.3169220974008544,0.03523827918883555,-0.18404464234031875,0.08037860441566003,-0.38786066894531246,8.655039001464843,-3.438073583984375,0.028511485490594395,-0.2680612561078314,0.11124808590956223,-0.4453237247970649,8.697147517171928,-3.6233612907905726,0.026062837804124512,-0.23857962499161744,0.09887163821942245,-0.33758243408203126,8.128314636230469,-3.438073583984375,0.028644716731204646,-0.2680612561078314,0.04596477801053769,0.9926188618609647,0.05048067418025328,-0.1074338062597146,0.024849021805699315
5,570.0,-0.82360537109375,8.84178673095703,-4.158728283691406,0.0005329249624410167,-0.3160245027275229,0.11124808590956223,-0.48639683361372665,8.774004531251258,-3.485283334658965,0.028297208343556642,-0.21044061441775957,0.08655250071444047,-0.38786066894531246,8.441955053710936,-4.158728283691406,0.0005329249624410167,-0.2680612561078314,0.10858346109735716,-0.4571000752471663,8.648739369475443,-3.7019380106439863,0.020641855454921438,-0.2441814367695657,0.09866539164417139,-0.82360537109375,8.84178673095703,-4.158728283691406,0.0005329249624410167,-0.3160245027275229,0.11124808590956223,0.9923883797723432,0.051453828639666105,-0.10900534131857978,0.025211956987972895
5,580.0,-0.38786066894531246,8.441955053710936,-4.259284753417968,-0.04783001537908125,-0.278320061634821,0.059554364552783616,-0.46668960068004384,8.707594635743193,-3.640083618410766,0.013071763599029064,-0.22401650386117186,0.08115287348210909,-0.469263525390625,8.441955053710936,-4.247313745117188,-0.015854517632620246,-0.2680612561078314,0.07274425737319878,-0.46920500677873783,8.605713249975697,-3.7714402365251014,0.015597590326321452,-0.24487087527678067,0.09563619099018231,-0.38786066894531246,8.441955053710936,-4.259284753417968,-0.04783001537908125,-0.278320061634821,0.059554364552783616,0.9921886487534051,0.052209219005296154,-0.11043431844624539,0.025301068061689528
5,590.0,-0.4836287353515625,8.427589843749999,-4.383783239746093,-0.02624655440022007,-0.21170444132969388,0.10858346109735716,-0.4700774276143476,8.651593677344556,-3.7888235426778314,0.0052080999991792375,-0.2215540913548763,0.0866389910051587,-0.4836287353515625,8.441955053710936,-4.247313745117188,-0.015854517632620246,-0.21170444132969388,0.07620826962906539,-0.4803785830827069,8.570734023553426,-3.8253358834098288,0.011298917006474406,-0.24148180263076435,0.0902795182425406,-0.4836287353515625,8.427589843749999,-4.383783239746093,-0.02624655440022007,-0.21170444132969388,0.10858346109735716,0.9920122847691132,0.05303599776205254,-0.11153654499650933,0.025659480485561215
5,600.0,-0.469263525390625,8.463502868652343,-4.247313745117188,-0.015854517632620246,-0.16960336929685357,0.07274425737319878,-0.46991464716960313,8.613975515606114,-3.8805215831657027,0.0009955764728193407,-0.21116394694327179,0.08386004427876673,-0.4836287353515625,8.427589843749999,-4.247313745117188,-0.015854517632620246,-0.2105053601642016,0.07620826962906539,-0.48990367627974907,8.545564261359322,-3.8616164635681542,0.007716890788611702,-0.23505762490307813,0.08299262362092476,-0.469263525390625,8.463502868652343,-4.247313745117188,-0.015854517632620246,-0.16960336929685357,0.07274425737319878,0.9918595972594932,0.053928509481112205,-0.1124179031954378,0.025854791248874368
5,610.0,-0.603338818359375,8.386888415527343,-3.775656018066406,0.014255742745297197,-0.15254977049874102,0.07620826962906539,-0.4965994814075575,8.56855809559036,-3.859548470145844,0.0036476097273149123,-0.19944111165436565,0.08232968934882645,-0.5530605834960938,8.427589843749999,-3.775656018066406,0.014255742745297197,-0.2105053601642016,0.07620826962906539,-0.4971162017983859,8.530838190731233,-3.882800906047598,0.00445532819725457,-0.22644746210158476,0.07413447101896185,-0.603338818359375,8.386888415527343,-3.775656018066406,0.014255742745297197,-0.15254977049874102,0.07620826962906539,0.991709200050545,0.05496624122036576,-0.11318618829932187,0.026085659652062793
5,620.0,-0.5961562133789062,8.355763793945313,-3.584119885253906,0.0764747321102859,-0.2105053601642016,0.08433537530629089,-0.5165108278018272,8.52599923526135,-3.8044627531674564,0.018213034203909108,-0.20165396135633287,0.08273082654031934,-0.5530605834960938,8.463502868652343,-3.7134067749023436,0.022249617181912446,-0.2105053601642016,0.07274425737319878,-0.5015580438356224,8.52594739108577,-3.8941123487743776,0.0009668097916982148,-0.21600991543721837,0.06406667215454159,-0.5961562133789062,8.355763793945313,-3.584119885253906,0.0764747321102859,-0.2105053601642016,0.08433537530629089,0.9915059260657614,0.056315007114637716,-0.11423228614669542,0.026374293390623627
5,630.0,-0.5530605834960938,8.513781103515624,-3.5410242553710933,0.0700796325609937,-0.2651301688144058,0.049695252747624805,-0.5238207789406806,8.523555608912206,-3.751775053608184,0.02858635387532603,-0.21434920284794748,0.07612371178178043,-0.5530605834960938,8.513781103515624,-3.7134067749023436,0.022249617181912446,-0.21969831576630913,0.053825421206542684,-0.503391620102341,8.529005326540245,-3.9006850341387995,-0.0031059199281916585,-0.20366589400757187,0.053193208845122464,-0.5530605834960938,8.513781103515624,-3.5410242553710933,0.0700796325609937,-0.2651301688144058,0.049695252747624805,0.9912741645683276,0.057658463785756287,-0.11554377232413647,0.02647015093154614
5,640.0,-0.5003881469726562,8.595183959960938,-3.7134067749023436,0.022249617181912446,-0.27339050573224155,0.053825421206542684,-0.5191342525470757,8.537881279121953,-3.744101397867016,0.027319006536643316,-0.2261574634248063,0.07166405366673288,-0.5003881469726562,8.595183959960938,-3.7134067749023436,0.022249617181912446,-0.21969831576630913,0.049695252747624805,-0.5035139734515404,8.537067159567405,-3.905429610386284,-0.007622165347364193,-0.1892959564635355,0.04199200475372461,-0.5003881469726562,8.595183959960938,-3.7134067749023436,0.022249617181912446,-0.27339050573224155,0.053825421206542684,0.9910463691026931,0.05876287692345123,-0.11691401331810687,0.026554323073684927
5,650.0,-0.4333505004882812,8.846575134277343,-3.8690298828125,-0.03996937218307625,-0.21969831576630913,0.0223828484225227,-0.5019775021353168,8.599620050153032,-3.769087094856113,0.013861330792699402,-0.2248656338931069,0.06180781261789085,-0.45968671875,8.595183959960938,-3.8690298828125,-0.03996937218307625,-0.21969831576630913,0.0223828484225227,-0.5032627832964721,8.546946447486526,-3.9085428018843342,-0.011911134064630511,-0.1731933194822384,0.031004461754642252,-0.4333505004882812,8.846575134277343,-3.8690298828125,-0.03996937218307625,-0.21969831576630913,0.0223828484225227,0.9908687274972231,0.05956946055012498,-0.11802760958226707,0.026459924680485167
5,660.0,-0.45968671875,8.731653454589843,-4.122815258789062,-0.07394333853869106,-0.16827105689075103,-0.005062787143189659,-0.49351934545825343,8.626026731040394,-3.8398327276427033,-0.003699603073578691,-0.21354671849263573,0.04843369266567475,-0.45968671875,8.611943371582031,-3.9336733276367184,-0.07167840744831674,-0.16827105689075103,0.0009326186842717792,-0.5039446497324839,8.556395264804118,-3.9084313583088997,-0.015065188396381468,-0.15624459793686155,0.020782645331638615,-0.45968671875,8.731653454589843,-4.122815258789062,-0.07394333853869106,-0.16827105689075103,-0.005062787143189659,0.9907330817986584,0.060216666493145915,-0.11888765144897197,0.026222891509781725
5,670.0,-0.30885201416015623,8.420407238769531,-3.9336733276367184,-0.0750091884635731,-0.07607503838845513,0.0009326186842717792,-0.456585879198634,8.584902832586222,-3.8586008476415063,-0.01796152015157757,-0.18605238247179962,0.03893347786939416,-0.45968671875,8.611943371582031,-4.029441394042968,-0.07167840744831674,-0.07607503838845513,-0.004929555902579404,-0.506389878180905,8.564784010043592,-3.903201970128613,-0.016346505540344575,-0.13975255591981348,0.011801756580188134,-0.30885201416015623,8.420407238769531,-3.9336733276367184,-0.0750091884635731,-0.07607503838845513,0.0009326186842717792,0.9906492362169912,0.06084200236765636,-0.11930700696901611,0.0260418820111213
5,680.0,-0.488417138671875,8.611943371582031,-4.029441394042968,-0.07167840744831674,-0.07394333853869106,-0.004929555902579404,-0.46295213109328226,8.590310940385384,-3.892768956921799,-0.028704897610925408,-0.16363057368517792,0.030160871114999453,-0.488417138671875,8.56166513671875,-4.029441394042968,-0.07167840744831674,-0.07394333853869106,-0.005062787143189659,-0.5105725451086647,8.572596935654193,-3.891713857794609,-0.015474431486456245,-0.1250429036947453,0.004391930613882275,-0.488417138671875,8.611943371582031,-4.029441394042968,-0.07167840744831674,-0.07394333853869106,-0.004929555902579404,0.9905679662302251,0.06148762450610173,-0.11969567892925531,0.025832552269891475
5,690.0,-0.59376201171875,8.480262280273436,-4.031835595703125,-0.0383705972957532,-0.058621745868511835,-0.022915773384963718,-0.48911410721837584,8.568301208362996,-3.9205822846780647,-0.03063803754789097,-0.1426288081218447,0.019545542215006817,-0.5458779785156249,8.530540515136718,-3.9504327392578125,-0.0383705972957532,-0.06967993883916293,-0.02131699849764067,-0.5155589213103081,8.580438872108605,-3.873902133453402,-0.012713289073401792,-0.11309755317574693,-0.0012653069067081646,-0.59376201171875,8.480262280273436,-4.031835595703125,-0.0383705972957532,-0.058621745868511835,-0.022915773384963718,0.9904884838722317,0.06230710008440179,-0.11998836559595166,0.02555740043847603
5,700.0,-0.5913678100585937,8.56166513671875,-3.900154504394531,0.003996937218307625,-0.058621745868511835,-0.03503981628049685,-0.5095648477864194,8.566973994034147,-3.916496728621358,-0.02371104259465125,-0.12582739567117812,0.008628470515906084,-0.5913678100585937,8.56166513671875,-3.9504327392578125,0.003996937218307625,-0.06967993883916293,-0.02131699849764067,-0.5200482700607567,8.588541008022503,-3.8508621044885802,-0.008780869326764414,-0.10438683630911401,-0.005140562180790657,-0.5913678100585937,8.56166513671875,-3.900154504394531,0.003996937218307625,-0.058621745868511835,-0.03503981628049685,0.9903967505584881,0.06334344053655545,-0.12026837235776515,0.025246853954377136
5,710.0,-0.5458779785156249,8.530540515136718,-3.9504327392578125,0.037304747370871166,-0.06967993883916293,-0.02131699849764067,-0.5168274739322606,8.559687298254662,-3.923283930748649,-0.01150788460154677,-0.1145979043047751,0.002639376713196734,-0.5913678100585937,8.56166513671875,-3.900154504394531,0.037304747370871166,-0.06967993883916293,-0.02131699849764067,-0.5230489400947338,8.596655222324125,-3.824854351546286,-0.004611687074495314,-0.09887313301425583,-0.007400509817156194,-0.5458779785156249,8.530540515136718,-3.9504327392578125,0.037304747370871166,-0.06967993883916293,-0.02131699849764067,0.990283898655304,0.06453744794293287,-0.12060964015531561,0.025020643050695693
5,720.0,-0.6081272216796875,8.678981018066406,-3.6631285400390623,0.04902909654457353,-0.09312863718656766,-0.006128637068071692,-0.535087423481746,8.58354604221701,-3.8712528526067316,0.0005995116276772908,-0.11030405088113363,0.000885773956943049,-0.5458779785156249,8.640673791503906,-3.6631285400390623,0.037304747370871166,-0.09312863718656766,-0.006128637068071692,-0.5241317925266165,8.604085228121464,-3.7990403562572657,-0.0010549360182000652,-0.09610139143761968,-0.008418668407244603,-0.6081272216796875,8.678981018066406,-3.6631285400390623,0.04902909654457353,-0.09312863718656766,-0.006128637068071692,0.990151357154425,0.06578309728721506,-0.12105568822006384,0.024867536792324244
5,730.0,-0.4740519287109375,8.702923034667968,-3.574543078613281,0.04503215932626591,-0.1055191425633213,0.012523736617363892,-0.5228803245275843,8.607421440707203,-3.811910897808042,0.009486041167395015,-0.10934706921757117,0.0032133664890272176,-0.5123591552734374,8.647856396484375,-3.6631285400390623,0.037304747370871166,-0.1055191425633213,0.012523736617363892,-0.5233630181773579,8.610001415152256,-3.776809817769735,0.0013680199406939724,-0.09535576795512057,-0.00869087247952874,-0.4740519287109375,8.702923034667968,-3.574543078613281,0.04503215932626591,-0.1055191425633213,0.012523736617363892,0.9900071096455344,0.06699856908157639,-0.12158152777949544,0.02480013498189006
5,740.0,-0.5123591552734374,8.640673791503906,-3.418919970703125,0.025047473234727783,-0.12017457903044926,0.02131699849764067,-0.5207760906767549,8.614071910866544,-3.7333127123870584,0.01259832758086157,-0.11151257118014679,0.006834092890749908,-0.5123591552734374,8.678981018066406,-3.6631285400390623,0.025047473234727783,-0.12017457903044926,0.012523736617363892,-0.5210986736756338,8.613924357282489,-3.760662196534402,0.00256253091852637,-0.09584780270752422,-0.008685874304774119,-0.5123591552734374,8.640673791503906,-3.418919970703125,0.025047473234727783,-0.12017457903044926,0.02131699849764067,0.9898588456935983,0.06811132524939972,-0.12217762765160177,0.024757630668834244
5,750.0,-0.5051765502929687,8.647856396484375,-3.6631285400390623,-0.0042633996995281335,-0.1293675346325568,0.018252679963604822,-0.5176561825999977,8.62082880799011,-3.7192758779174593,0.009225982124783629,-0.11508356387062879,0.00911781030532089,-0.5123591552734374,8.647856396484375,-3.6631285400390623,-0.0042633996995281335,-0.1215068914365518,0.012523736617363892,-0.5177045432930354,8.615959799389838,-3.7511545495304737,0.002803409053183578,-0.0968832324794532,-0.00870283387283731,-0.5051765502929687,8.647856396484375,-3.6631285400390623,-0.0042633996995281335,-0.1293675346325568,0.018252679963604822,0.9897129433520782,0.06908160218046952,-0.12282918360945524,0.02467820202892054
5,760.0,-0.5913678100585937,8.724470849609375,-3.7229835815429686,-0.029577335415476427,-0.1215068914365518,-0.0035972434964768626,-0.532398508091717,8.641557216313963,-3.7200174186425614,0.0014653186167316173,-0.11636822938381339,0.00657479954496134,-0.5123591552734374,8.640673791503906,-3.7229835815429686,-0.0042633996995281335,-0.1215068914365518,-0.0035972434964768626,-0.5134596387583555,8.616743594594926,-3.7467224278622844,0.0025537823698583363,-0.09797993084278374,-0.00880166046460583,-0.5913678100585937,8.724470849609375,-3.7229835815429686,-0.029577335415476427,-0.1215068914365518,-0.0035972434964768626,0.9895830122033398,0.06993890183747306,-0.12342988883384726,0.024475998668022594
5,770.0,-0.5339069702148437,8.535328918457031,-3.9360675292968748,-0.027179173084491852,-0.13336447185086442,-0.014921898948348467,-0.5327002005163424,8.620311556742577,-3.7632274407734245,-0.004263579723513077,-0.1197674778772236,0.0022754598462993787,-0.5051765502929687,8.535328918457031,-3.7229835815429686,-0.0042633996995281335,-0.1215068914365518,-0.003996937218307625,-0.5087545748990654,8.617377370165398,-3.7445422876984336,0.002234783066803807,-0.0989269455788894,-0.008842339987914012,-0.5339069702148437,8.535328918457031,-3.9360675292968748,-0.027179173084491852,-0.13336447185086442,-0.014921898948348467,0.9894435063464609,0.07081598931756349,-0.12409789259245171,0.024214798366033647
5,780.0,-0.4429273071289062,8.487444885253906,-3.9360675292968748,-0.0017320061279333043,-0.11471209816542884,-0.003996937218307625,-0.5147456218388552,8.593738222444843,-3.797795458478115,-0.0037572650043971225,-0.11875640193486466,0.001020980433377978,-0.5003881469726562,8.535328918457031,-3.845087866210937,-0.0017320061279333043,-0.11471209816542884,-0.014921898948348467,-0.5042618078005717,8.619177198174812,-3.7418686299441255,0.002066156435635851,-0.09979530418924168,-0.008590888438628565,-0.4429273071289062,8.487444885253906,-3.9360675292968748,-0.0017320061279333043,-0.11471209816542884,-0.003996937218307625,0.9893026586779978,0.07180918488756051,-0.1246846992988221,0.02402948728523274
5,790.0,-0.5003881469726562,8.528146313476562,-3.6918589599609373,0.006661562030512709,-0.08500153150934216,-0.016120980113840756,-0.5118741268656154,8.580619840651186,-3.776608158774679,-0.0016734995974151566,-0.11200542784976017,-0.0024074116760657693,-0.5003881469726562,8.535328918457031,-3.845087866210937,0.006261868308681946,-0.10192189906684444,-0.016120980113840756,-0.5007823489971208,8.623049283953208,-3.7370243623214274,0.0020645946849010065,-0.10089327151302735,-0.007799886155934082,-0.5003881469726562,8.528146313476562,-3.6918589599609373,0.006661562030512709,-0.08500153150934216,-0.016120980113840756,0.989179054133736,0.0728478729632365,-0.1251065091307429,0.02379805960448918
5,800.0,-0.4165910888671875,8.580818749999999,-3.845087866210937,0.006261868308681946,-0.10192189906684444,-0.024781010753507277,-0.49281751926592987,8.58065962252095,-3.7903041002619307,-8.642601619573607e-05,-0.10998872209317703,-0.006882131491554071,-0.488417138671875,8.580818749999999,-3.825934252929687,0.006661562030512709,-0.08500153150934216,-0.016120980113840756,-0.49894514978170856,8.628994507599378,-3.7294918509709096,0.0021523472748286965,-0.1026464661457416,-0.006249203406034498,-0.4165910888671875,8.580818749999999,-3.845087866210937,0.006261868308681946,-0.10192189906684444,-0.024781010753507277,0.9890430778186636,0.0738912473607307,-0.12562165138758624,0.023517535693946146
5,810.0,-0.5123591552734374,8.602366564941406,-3.806780639648437,0.00799387443661525,-0.071811638688927,-0.031842266505850744,-0.4967258464674314,8.58500101100504,-3.793599408139232,0.0015296340743664613,-0.10235330541232703,-0.011874158494413407,-0.4955997436523437,8.602366564941406,-3.806780639648437,0.006661562030512709,-0.08500153150934216,-0.016120980113840756,-0.49904019618546336,8.636129685381482,-3.719538156928079,0.0022549059194795448,-0.10545672642632291,-0.0038066807191635466,-0.5123591552734374,8.602366564941406,-3.806780639648437,0.00799387443661525,-0.071811638688927,-0.031842266505850744,0.9889262359631661,0.07494413701801617,-0.12597402924366563,0.02321249892762325
5,820.0,-0.488417138671875,8.657433203124999,-3.825934252929687,0.006794793271122963,-0.08313629414079861,-0.013989280264076687,-0.49506410490832015,8.599487449429033,-3.8000663770973233,0.0025826659137177617,-0.09850990315802136,-0.012297182848346064,-0.488417138671875,8.657433203124999,-3.806780639648437,0.006261868308681946,-0.08899846872764978,-0.013989280264076687,-0.5010325250532192,8.642992052171943,-3.708169031057175,0.002339709339536646,-0.10959120221549253,-0.0005072383808900111,-0.488417138671875,8.657433203124999,-3.825934252929687,0.006794793271122963,-0.08313629414079861,-0.013989280264076687,0.9887989884072462,0.07598073337953264,-0.12639198991119147,0.022990292869034163
5,830.0,-0.4955997436523437,8.796296899414061,-3.641580725097656,0.003863705977697371,-0.095926493239383,-0.0014655436467127959,-0.49517123265712487,8.638849339426038,-3.7683692466973904,0.002838873926513684,-0.0979932211742937,-0.010130855008019411,-0.4955997436523437,8.657433203124999,-3.641580725097656,0.003863705977697371,-0.08899846872764978,-0.0014655436467127959,-0.5046924391994076,8.647940084964114,-3.697243584989128,0.002421224070990173,-0.11509952765812757,0.00341945414509823,-0.4955997436523437,8.796296899414061,-3.641580725097656,0.003863705977697371,-0.095926493239383,-0.0014655436467127959,0.9886628621527905,0.07699614184692383,-0.12687196125660039,0.022822019793272804
5,840.0,-0.4429273071289062,8.729259252929687,-3.5529952636718747,-0.007194486992953725,-0.08899846872764978,0.011857580414312622,-0.4847224475514812,8.656931322126768,-3.7252944500922873,0.0008322017426202022,-0.09619427068496493,-0.005733167923553004,-0.4955997436523437,8.667010009765624,-3.641580725097656,-0.007194486992953725,-0.095926493239383,0.011857580414312622,-0.5096594289899822,8.649694989272577,-3.689132145105158,0.0025452716401342555,-0.12177741540607886,0.0076009733475326455,-0.4429273071289062,8.729259252929687,-3.5529952636718747,-0.007194486992953725,-0.08899846872764978,0.011857580414312622,0.9885322220503235,0.07794714184106037,-0.1273276701632244,0.022714608908464547
5,850.0,-0.5434837768554687,8.643067993164061,-3.5793314819335937,-0.015854517632620246,-0.1005895866607419,0.017453292519943295,-0.4964747134122787,8.654158656334227,-3.696101856460549,-0.0025051421324278874,-0.09707333388012032,-0.0010958758348537444,-0.5267243652343749,8.667010009765624,-3.5793314819335937,-0.007194486992953725,-0.1005895866607419,0.017453292519943295,-0.5153649994862725,8.647750559178261,-3.6859364407589648,0.0027417267114153124,-0.1291599335416372,0.011609264511740961,-0.5434837768554687,8.643067993164061,-3.5793314819335937,-0.015854517632620246,-0.1005895866607419,0.017453292519943295,0.9883970263164064,0.07885309807234836,-0.12783465198518995,0.02262319705751383
5,860.0,-0.5267243652343749,8.667010009765624,-3.6463691284179687,-0.009326186842717792,-0.1305666157980491,0.01945176112909711,-0.502524643776698,8.656728927020508,-3.6861553108520333,-0.003869351074485868,-0.10377199026370608,0.0030136515579364262,-0.5434837768554687,8.652644799804687,-3.5793314819335937,-0.007194486992953725,-0.1305666157980491,0.01945176112909711,-0.5210322279396361,8.642287298010572,-3.6888830861991777,0.002955585282881049,-0.13651781526854084,0.015029057823178944,-0.5267243652343749,8.667010009765624,-3.6463691284179687,-0.009326186842717792,-0.1305666157980491,0.01945176112909711,0.9882382105918589,0.07979301273528312,-0.1284934434004726,0.02253329199024154
5,870.0,-0.6105214233398437,8.63827958984375,-3.5434184570312497,0.0095926493239383,-0.16094333865718705,0.021183767257030413,-0.5241239996893272,8.653039059585156,-3.6576079400878765,-0.0011769509948010347,-0.11520625994240227,0.006647674697755224,-0.5434837768554687,8.652644799804687,-3.6463691284179687,0.0095926493239383,-0.16094333865718705,0.021183767257030413,-0.5258842527689223,8.633826696963718,-3.6982140526724994,0.0030112466176748587,-0.14291570918938348,0.017488247606954933,-0.6105214233398437,8.63827958984375,-3.5434184570312497,0.0095926493239383,-0.16094333865718705,0.021183767257030413,0.9880520912052891,0.08082854237335602,-0.12928967398414348,0.02244976622879762
5,880.0,-0.5722141967773438,8.652644799804687,-3.6822821533203123,0.02491424199411753,-0.19198621771937627,0.037437978611481425,-0.5337420391069305,8.652960207629063,-3.662542782734364,0.004041287602982679,-0.13056225149779707,0.012805735480500464,-0.5578489868164063,8.652644799804687,-3.6822821533203123,0.011058192970651096,-0.1915865239975455,0.03637212868659939,-0.5294344556748783,8.62305170698492,-3.713247648545046,0.002664366535697645,-0.14737670095176406,0.018669928821765356,-0.5722141967773438,8.652644799804687,-3.6822821533203123,-0.0026646248122050836,-0.19198621771937627,0.037437978611481425,0.9878349177130944,0.08193213339711364,-0.13025212471691505,0.022442924731209547
5,890.0,-0.4740519287109375,8.655039001464843,-3.7229835815429686,0.019318529888486854,-0.2011791733214838,0.04396630940138388,-0.5218040170277319,8.653375966396219,-3.6746309424960852,0.007096736060083514,-0.1446856358625344,0.01903785026467715,-0.5578489868164063,8.63827958984375,-3.7229835815429686,0.011058192970651096,-0.1915865239975455,0.03637212868659939,-0.5316192653449627,8.610823690801022,-3.7324597075549315,0.0017199139479059772,-0.14910404401866365,0.01834932252175365,-0.4740519287109375,8.655039001464843,-3.7229835815429686,-0.007194486992953725,-0.2011791733214838,0.04396630940138388,0.9876096359989608,0.08300392562940409,-0.13127492414707564,0.022459953301115384
5,900.0,-0.5578489868164063,8.583212951660157,-3.746925598144531,0.011058192970651096,-0.1915865239975455,0.03637212868659939,-0.5290130109854668,8.639343363449008,-3.6890898736257745,0.00788902744219703,-0.15406581348953663,0.0225047059490616,-0.5578489868164063,8.583212951660157,-3.746925598144531,0.011058192970651096,-0.1915865239975455,0.03637212868659939,-0.532624229998216,8.598244350836522,-3.7537645912557287,0.00012688239735980037,-0.14766977633334447,0.01646160967496399,-0.5578489868164063,8.583212951660157,-3.746925598144531,-0.009326186842717792,-0.1915865239975455,0.03637212868659939,0.9873937977833864,0.08403859726382575,-0.1322409021674925,0.022435375253320594
5,910.0,-0.5147533569335937,8.475473876953124,-3.8139632446289062,-0.0026646248122050836,-0.17226799410905866,0.024381317031676515,-0.5261610801750922,8.606569466149832,-3.714064547826401,0.005778296991316608,-0.15770624961344104,0.022880028165584584,-0.5578489868164063,8.542511523437499,-3.8139632446289062,-0.0026646248122050836,-0.17226799410905866,0.024381317031676515,-0.5326307280416717,8.586551890780369,-3.7748729100661738,-0.0020120337522929613,-0.14309509478056426,0.013145450287559512,-0.5147533569335937,8.475473876953124,-3.8139632446289062,-0.0026646248122050836,-0.17226799410905866,0.024381317031676515,0.9871950097348151,0.08501055317467787,-0.13311545740937705,0.022349353509792592
5,920.0,-0.5698199951171875,8.537723120117187,-3.892971899414062,-0.01212404289553313,-0.1532159267017923,0.00892649312088703,-0.5348928631635113,8.592800196943303,-3.7498460181439333,0.0021978290139466608,-0.1568081850311113,0.020089321156645072,-0.5578489868164063,8.542511523437499,-3.842693664550781,-0.01212404289553313,-0.1532159267017923,0.00892649312088703,-0.531776335041253,8.576753517154627,-3.7935870512975143,-0.004501006137338282,-0.1358105533749519,0.008719386393734745,-0.5698199951171875,8.537723120117187,-3.892971899414062,-0.01212404289553313,-0.1532159267017923,0.00892649312088703,0.9870135332263159,0.08594368745760272,-0.13388694120658146,0.022186815648926855
5,930.0,-0.565031591796875,8.542511523437499,-3.897760302734375,-0.013589586542245926,-0.13296477812903365,-0.0063950995492922,-0.540920608890184,8.582742462242143,-3.7794288750620217,-0.0009596540972918565,-0.1520395036506958,0.014792437015457618,-0.5147533569335937,8.542511523437499,-3.871424084472656,-0.013589586542245926,-0.13296477812903365,-0.0063950995492922,-0.5302760276278523,8.569311912596,-3.80814038284586,-0.007131332458324527,-0.12654802082692854,0.0036048504839020844,-0.565031591796875,8.542511523437499,-3.897760302734375,-0.013589586542245926,-0.13296477812903365,-0.0063950995492922,0.9868464062894649,0.08687712843027519,-0.13455301685728605,0.021954967635612534
5,940.0,-0.47165772705078124,8.588001354980468,-3.842693664550781,-0.015454823910789483,-0.10845022985674689,-0.011324655451871604,-0.5270680325223035,8.583794240789809,-3.7920818329597736,-0.0038586880599913824,-0.14332164889190602,0.009569018521991775,-0.5363011718749999,8.542511523437499,-3.871424084472656,-0.015454823910789483,-0.10845022985674689,-0.011324655451871604,-0.5285110067047917,8.564200848291222,-3.8174770718318682,-0.009737710835950146,-0.11621741711112116,-0.0017663174647984054,-0.47165772705078124,8.588001354980468,-3.842693664550781,-0.015454823910789483,-0.10845022985674689,-0.011324655451871604,0.9866947654883385,0.08780115576882118,-0.13510430933352,0.021707657706084776
5,950.0,-0.47165772705078124,8.640673791503906,-3.871424084472656,-0.01945176112909711,-0.08007197560676275,-0.012257274136143383,-0.5159859714279991,8.595170150932628,-3.8079502832623504,-0.006977302673812528,-0.13067171423487736,0.005203759990364744,-0.5363011718749999,8.568847741699217,-3.871424084472656,-0.015454823910789483,-0.08007197560676275,-0.012257274136143383,-0.5269003405846704,8.561234658307585,-3.8212494809272335,-0.01221776620838788,-0.10577933180724064,-0.007019798401944187,-0.47165772705078124,8.640673791503906,-3.871424084472656,-0.01945176112909711,-0.08007197560676275,-0.012257274136143383,0.9865629521540117,0.0887026160115885,-0.13551627645426145,0.02146453274203414
5,960.0,-0.5363011718749999,8.441955053710936,-3.845087866210937,-0.016520673835671518,-0.058888208349732345,-0.01532159267017923,-0.5200490115173992,8.56452713148829,-3.815377799852068,-0.008885976906184326,-0.11631501305784836,0.0010986894582559492,-0.5363011718749999,8.568847741699217,-3.845087866210937,-0.015454823910789483,-0.06128637068071692,-0.01532159267017923,-0.5256275229316395,8.560350974351454,-3.8196356270787195,-0.014531224358723789,-0.09610400375183967,-0.011857767399037622,-0.5363011718749999,8.441955053710936,-3.845087866210937,-0.016520673835671518,-0.058888208349732345,-0.01532159267017923,0.9864443261820045,0.08961834910101023,-0.1358160858742713,0.021216353728502484
5,970.0,-0.5746083984375,8.568847741699217,-3.871424084472656,-0.01119142421126135,-0.054225114928373445,-0.025713629437779054,-0.5309608889014195,8.565391253530477,-3.826587056776186,-0.009347066367199732,-0.10389703343195339,-0.004263774320951052,-0.5363011718749999,8.56166513671875,-3.845087866210937,-0.01438897398590745,-0.06128637068071692,-0.025713629437779054,-0.5246045628710438,8.561536993125612,-3.813223536259779,-0.016685130301170366,-0.08783426662678953,-0.01604732940157035,-0.5746083984375,8.568847741699217,-3.871424084472656,-0.01119142421126135,-0.054225114928373445,-0.025713629437779054,0.9863271105794543,0.09056676490991238,-0.13608370007552295,0.020921725633726476
5,980.0,-0.5458779785156249,8.55448253173828,-3.8043864379882812,-0.012523736617363892,-0.06128637068071692,-0.032508422708902016,-0.5339443068242605,8.563209509172037,-3.822146933018605,-0.009982400417232563,-0.09537490088170611,-0.009912703998541245,-0.5458779785156249,8.56166513671875,-3.8043864379882812,-0.01438897398590745,-0.06128637068071692,-0.030909647821578966,-0.5237487321128862,8.56455987869081,-3.8029868816680055,-0.018698133494554944,-0.08130564261189782,-0.019420434038322998,-0.5458779785156249,8.55448253173828,-3.8043864379882812,-0.012523736617363892,-0.06128637068071692,-0.032508422708902016,0.9862051844678632,0.09151355351048682,-0.13638435086420214,0.020589135288826364
5,990.0,-0.5147533569335937,8.56166513671875,-3.7804444213867185,-0.01438897398590745,-0.06888055139550141,-0.030909647821578966,-0.5301061168461272,8.56290063468138,-3.813806430692228,-0.010863715130967542,-0.09007603098446518,-0.01411209276314879,-0.5458779785156249,8.56166513671875,-3.7804444213867185,-0.01438897398590745,-0.06128637068071692,-0.030909647821578966,-0.5232085891561405,8.568936425771811,-3.7902121040186927,-0.020558276464479844,-0.07656167413043262,-0.021896159771616675,-0.5147533569335937,8.56166513671875,-3.7804444213867185,-0.01438897398590745,-0.06888055139550141,-0.030909647821578966,0.986077339504321,0.09245036542240362,-0.13672588288757082,0.020259402704881774
5,1000.0,-0.5482721801757812,8.655039001464843,-3.7110125732421873,-0.022915773384963718,-0.06967993883916293,-0.03797090357392244,-0.533739329512058,8.581328308038074,-3.79324765920222,-0.013274126781766777,-0.08599681255540473,-0.01888385492530352,-0.5147533569335937,8.56166513671875,-3.737348791503906,-0.022915773384963718,-0.06888055139550141,-0.030909647821578966,-0.5233432352443991,8.574121894044515,-3.776287781281878,-0.022202631964815256,-0.0734405961063334,-0.023501307052687017,-0.5482721801757812,8.655039001464843,-3.7110125732421873,-0.022915773384963718,-0.06967993883916293,-0.03797090357392244,0.9859533557624366,0.09334988956639025,-0.1370629998402513,0.019887494903187634
5,1010.0,-0.48123453369140623,8.518569506835936,-3.7134067749023436,-0.032774885190122525,-0.06062021447766565,-0.027045941843881597,-0.5232383703479278,8.568776547797647,-3.777279482342245,-0.017174278463437928,-0.08092149293985693,-0.020516272309019135,-0.5147533569335937,8.597578161621094,-3.7134067749023436,-0.032774885190122525,-0.06954670759855268,-0.027045941843881597,-0.5246024755996552,8.57968854247406,-3.7624106137010123,-0.0235335905952292,-0.07166368441458909,-0.024373840006260656,-0.48123453369140623,8.518569506835936,-3.7134067749023436,-0.032774885190122525,-0.06062021447766565,-0.027045941843881597,0.9858370440694996,0.09419178216160488,-0.13736942817501097,0.019567087581008002
5,1020.0,-0.47165772705078124,8.628702783203124,-3.737348791503906,-0.0351730475211071,-0.06954670759855268,-0.011591117933092114,-0.5129222416884984,8.580761794878743,-3.769293344174577,-0.020774032274971765,-0.07864653587159609,-0.018731241433833732,-0.5363011718749999,8.628702783203124,-3.7134067749023436,-0.032774885190122525,-0.06967993883916293,-0.021849923460081685,-0.5273786546307079,8.585362934080294,-3.7493762146864884,-0.02446682009965315,-0.0708774476545142,-0.02473573490566054,-0.47165772705078124,8.628702783203124,-3.737348791503906,-0.0351730475211071,-0.06954670759855268,-0.011591117933092114,0.985713214985568,0.0950117397710727,-0.13772834501322403,0.019316575483447222
5,1030.0,-0.5363011718749999,8.597578161621094,-3.7110125732421873,-0.03424042883683532,-0.08739969384032674,-0.011724349173702367,-0.5175980277257988,8.584125068227214,-3.7576371899880994,-0.023467311587344476,-0.08039716746534223,-0.01732986298180746,-0.5363011718749999,8.597578161621094,-3.737348791503906,-0.032774885190122525,-0.080205206847373,-0.021849923460081685,-0.5318203616963081,8.590953230044596,-3.737577725630069,-0.02498356817886225,-0.0706795695327938,-0.024819823598987423,-0.5363011718749999,8.597578161621094,-3.7110125732421873,-0.03424042883683532,-0.08739969384032674,-0.011724349173702367,0.9855767454872396,0.09583813970111932,-0.13816797935509648,0.019056211961963266
5,1040.0,-0.5674257934570313,8.724470849609375,-3.749319799804687,-0.025713629437779054,-0.08660030639666522,-0.021849923460081685,-0.5275635808720454,8.612194224503646,-3.755973711951417,-0.023916575157431393,-0.08163779525160683,-0.018233875077462304,-0.5386953735351562,8.597578161621094,-3.737348791503906,-0.025713629437779054,-0.080205206847373,-0.021849923460081685,-0.5378022431151289,8.596425558837568,-3.727145533734934,-0.02515287077750017,-0.0706846472659765,-0.024790325310795506,-0.5674257934570313,8.724470849609375,-3.749319799804687,-0.025713629437779054,-0.08660030639666522,-0.021849923460081685,0.9854371022486379,0.09671324060748696,-0.13859531428794925,0.018751145576490522
5,1050.0,-0.5386953735351562,8.441955053710936,-3.816357446289062,-0.017320061279333044,-0.080205206847373,-0.029310872934255917,-0.5297899394046676,8.578146390345104,-3.768050458818946,-0.022597272381811723,-0.08135127757076008,-0.020449274648821028,-0.5410895751953124,8.597578161621094,-3.7110125732421873,-0.017320061279333044,-0.080205206847373,-0.022782542144353463,-0.5451188392137337,8.602063250118052,-3.718166217533461,-0.02510799061981708,-0.070606212317573,-0.024726092428543248,-0.5386953735351562,8.628702783203124,-3.816357446289062,-0.017320061279333044,-0.080205206847373,-0.029310872934255917,0.9852965225054835,0.09763375489144899,-0.13899347420570637,0.01841810990914096
5,1060.0,-0.5410895751953124,8.544905725097657,-3.564966271972656,-0.015454823910789483,-0.07767381327577819,-0.026646248122050836,-0.5320498665627966,8.571498257295616,-3.727433621449688,-0.021168782687607274,-0.0806157847117637,-0.02168866934346699,-0.5410895751953124,8.63827958984375,-3.6942531616210936,-0.015854517632620246,-0.07767381327577819,-0.022782542144353463,-0.5536286956883172,8.608234178556804,-3.7108909761284536,-0.02498874295439408,-0.0702879491723372,-0.02466642654482756,-0.5410895751953124,8.544905725097657,-3.564966271972656,-0.015454823910789483,-0.07767381327577819,-0.026646248122050836,0.9851566042778016,0.098561130151609,-0.1393721165059342,0.018099221301619357
5,1070.0,-0.5458779785156249,8.659827404785156,-3.6942531616210936,-0.015854517632620246,-0.06967993883916293,-0.022782542144353463,-0.5348154889533623,8.589164086793524,-3.7207975294839697,-0.02010592967660987,-0.07842861553724355,-0.021907443903644287,-0.5410895751953124,8.63827958984375,-3.670311145019531,-0.015854517632620246,-0.07474272598235258,-0.022782542144353463,-0.5632010276306734,8.614897038499256,-3.7056063917980793,-0.024883094701993097,-0.06967896151918922,-0.024656102383581423,-0.5458779785156249,8.659827404785156,-3.6942531616210936,-0.015854517632620246,-0.06967993883916293,-0.022782542144353463,0.9850206587681929,0.09948271025289791,-0.13971599532295317,0.01780260687454829
5,1080.0,-0.5363011718749999,8.63827958984375,-3.6655227416992187,-0.015055130188958722,-0.07381010729808081,-0.019718223610317616,-0.5351126255376899,8.59898718740357,-3.70974257192702,-0.019095769779079643,-0.07750491388941101,-0.021469599844978954,-0.5458779785156249,8.63827958984375,-3.670311145019531,-0.015854517632620246,-0.07381010729808081,-0.022782542144353463,-0.5735931064584131,8.621572583441987,-3.702257496053022,-0.024794909230628714,-0.06879357711599667,-0.024749178224026218,-0.5363011718749999,8.63827958984375,-3.6655227416992187,-0.015055130188958722,-0.07381010729808081,-0.019718223610317616,0.9848800662015597,0.10040606616701143,-0.14008198065403896,0.01751901172208576
5,1090.0,-0.5793968017578125,8.652644799804687,-3.670311145019531,-0.0255803981971688,-0.07474272598235258,-0.021849923460081685,-0.5439694607817145,8.609718709883794,-3.7018562865455222,-0.020392695462697473,-0.07695247630799933,-0.0215456645679995,-0.5506663818359374,8.652644799804687,-3.6942531616210936,-0.0255803981971688,-0.06967993883916293,-0.021849923460081685,-0.5843641957195904,8.62774877101453,-3.7003295717572753,-0.02464113572404363,-0.06768782627638208,-0.024985869840485883,-0.5793968017578125,8.652644799804687,-3.670311145019531,-0.0255803981971688,-0.07474272598235258,-0.021849923460081685,0.9847438718107316,0.10127901177569826,-0.14044813633028772,0.0172159724179606
5,1100.0,-0.6105214233398437,8.611943371582031,-3.7014357666015623,-0.03477335379927634,-0.06341807053048099,-0.03157580402463024,-0.5572798532933403,8.61016364222344,-3.7017721825567302,-0.02326882713001325,-0.07424559515249565,-0.02355169245932565,-0.5793968017578125,8.63827958984375,-3.7014357666015623,-0.029310872934255917,-0.06381776425231175,-0.021849923460081685,-0.5948785991783024,8.633099238898573,-3.698974782122499,-0.024282188879454075,-0.06645717650025731,-0.02537993262997353,-0.6105214233398437,8.611943371582031,-3.7014357666015623,-0.017320061279333044,-0.06341807053048099,-0.03157580402463024,0.9846204566818985,0.10211234462725582,-0.14075243962060965,0.016863454542312632
5,1110.0,-0.5506663818359374,8.695740429687499,-3.7612908081054686,-0.03770444109270193,-0.059021439590342596,-0.0013323124061025418,-0.5559571590018597,8.627278999716253,-3.7136759076664783,-0.026155949922550985,-0.07120076404006505,-0.01910781644868103,-0.6105214233398437,8.628702783203124,-3.7014357666015623,-0.029310872934255917,-0.06341807053048099,-0.03157580402463024,-0.6043826666033865,8.637445385668146,-3.6971788768425218,-0.023587123441620002,-0.0652248070962173,-0.025919562275557962,-0.5506663818359374,8.695740429687499,-3.7612908081054686,-0.016387442595061263,-0.059021439590342596,-0.027045941843881597,0.9844972188922946,0.10290896081480715,-0.14105817095632614,0.016660257615344277
5,1120.0,-0.7589619262695312,8.628702783203124,-3.785232824707031,-0.029310872934255917,-0.06381776425231175,-0.03823736605514295,-0.596558112455394,8.627563756413627,-3.727987291074589,-0.026786934524891972,-0.06972416408251439,-0.022933726369973415,-0.6105214233398437,8.628702783203124,-3.7612908081054686,-0.029310872934255917,-0.06341807053048099,-0.03370750387439431,-0.6121030442112898,8.640741073823952,-3.694056975460813,-0.022500662204785263,-0.06410754045200792,-0.026550753153442047,-0.5698199951171875,8.628702783203124,-3.785232824707031,-0.029310872934255917,-0.06381776425231175,-0.03823736605514295,0.984371303140236,0.10377386974955617,-0.14134782747016872,0.01627615374278926
5,1130.0,-0.7398083129882812,8.59278975830078,-3.6750995483398436,-0.020517611053979142,-0.03490658503988659,-0.0351730475211071,-0.6252081525619715,8.620608956791058,-3.7174097425276402,-0.02553306983070941,-0.06276064827398883,-0.025381590600200156,-0.5722141967773438,8.655039001464843,-3.7612908081054686,-0.020517611053979142,-0.06381776425231175,-0.03370750387439431,-0.6175464140486524,8.643060749364881,-3.6891742182504808,-0.021064628277989307,-0.06317704666294505,-0.027174737567653148,-0.5722141967773438,8.59278975830078,-3.6750995483398436,-0.020517611053979142,-0.06768147023000912,-0.0351730475211071,0.9842602221015302,0.10467715018327899,-0.1414949369653498,0.015927718961778626
5,1140.0,-0.5698199951171875,8.655039001464843,-3.766079211425781,-0.01305666157980491,-0.0814042880128653,-0.03370750387439431,-0.6141305210730148,8.627494965725816,-3.7271436363072685,-0.023037788180528512,-0.06648937622176412,-0.027046773255038986,-0.5722141967773438,8.655039001464843,-3.737348791503906,-0.016387442595061263,-0.06381776425231175,-0.03370750387439431,-0.6209241826594489,8.644446955009515,-3.682620021351586,-0.019383337532743104,-0.062427155340450735,-0.02770279410385041,-0.5698199951171875,8.655039001464843,-3.766079211425781,-0.01305666157980491,-0.0814042880128653,-0.03370750387439431,0.98410839581519,0.10561875395644828,-0.14189059021960213,0.015569345068863373
5,1150.0,-0.5722141967773438,8.717288244628906,-3.5434184570312497,-0.013989280264076687,-0.07780704451638844,-0.028511485490594395,-0.6057472562138806,8.645453621506435,-3.690398600452065,-0.021228086597238148,-0.068752909880689,-0.02733971570215007,-0.5722141967773438,8.655039001464843,-3.679887951660156,-0.013989280264076687,-0.06062021447766565,-0.03130934154340973,-0.6230845991265221,8.64483106412198,-3.674827892686374,-0.017566890102572418,-0.061798163856088446,-0.02810571550684752,-0.5722141967773438,8.717288244628906,-3.5434184570312497,-0.013989280264076687,-0.07780704451638844,-0.028511485490594395,0.9839590927064459,0.10655149838668537,-0.142264318536138,0.015236329719072288
5,1160.0,-0.5434837768554687,8.671798413085938,-3.737348791503906,-0.016387442595061263,-0.06062021447766565,-0.025980091918999564,-0.5932945603421982,8.650722579822336,-3.699788638662433,-0.02025995779680277,-0.06712637080008434,-0.02706779094551997,-0.5722141967773438,8.655039001464843,-3.679887951660156,-0.01305666157980491,-0.06062021447766565,-0.03130934154340973,-0.6249038401717198,8.644250049214484,-3.666282350967965,-0.01569583676204328,-0.06127056625449438,-0.028403950028729558,-0.5434837768554687,8.671798413085938,-3.737348791503906,-0.016387442595061263,-0.06062021447766565,-0.025980091918999564,0.9838207638126385,0.1074687297025741,-0.14256389885814028,0.014923524034150903
5,1170.0,-0.6296750366210937,8.609549169921875,-3.679887951660156,-0.01212404289553313,-0.05542419609386574,-0.03130934154340973,-0.6005706555979773,8.642487897842244,-3.695808501261978,-0.018632774816548847,-0.06478593585884063,-0.027916101065097926,-0.6296750366210937,8.619125976562499,-3.622427111816406,-0.01305666157980491,-0.0604869832370554,-0.028511485490594395,-0.6268111655522121,8.643057745581471,-3.6573660287365093,-0.013821623337005748,-0.06091019063892237,-0.02863520761158337,-0.6296750366210937,8.609549169921875,-3.679887951660156,-0.01212404289553313,-0.05542419609386574,-0.03130934154340973,0.9836846292195925,0.10841044725145378,-0.1428247011851667,0.014588690661624527
5,1180.0,-0.6416460449218749,8.609549169921875,-3.622427111816406,-0.011724349173702367,-0.0511607963943376,-0.03397396635561482,-0.6087857334627569,8.63590015225817,-3.681132223372864,-0.017251089687979553,-0.06206090796594002,-0.029127674123201306,-0.6416460449218749,8.619125976562499,-3.622427111816406,-0.01212404289553313,-0.06035375199644514,-0.03130934154340973,-0.6287835096310797,8.641796416110815,-3.6484919173010204,-0.011980885755706747,-0.06081276552035039,-0.028842806631744607,-0.6416460449218749,8.609549169921875,-3.622427111816406,-0.011724349173702367,-0.0511607963943376,-0.03397396635561482,0.9835508831199707,0.10935542584544962,-0.143060127147861,0.014242583070626017
5,1190.0,-0.6631938598632812,8.619125976562499,-3.6200329101562496,-0.01305666157980491,-0.0604869832370554,-0.0019984686091538127,-0.6196673587428618,8.632545317119035,-3.6689123607295415,-0.016412204066344624,-0.0617461230201631,-0.02370183302039181,-0.6416460449218749,8.609549169921875,-3.622427111816406,-0.011724349173702367,-0.06035375199644514,-0.03130934154340973,-0.6306245333612156,8.64090186959926,-3.640175950570496,-0.01020448896281955,-0.06103710124111666,-0.029070196390516126,-0.6631938598632812,8.619125976562499,-3.6200329101562496,-0.01305666157980491,-0.0604869832370554,-0.03157580402463024,0.9834082431859937,0.1102713824152418,-0.14335665822333726,0.014046992457681392
5,1200.0,-0.7517793212890624,8.674192614746094,-3.5314474487304683,-0.009992343045769063,-0.06035375199644514,-0.037837672333312186,-0.646089751252102,8.640874776644448,-3.641419378329727,-0.015128231862229512,-0.061467648815419516,-0.026529000882975887,-0.6416460449218749,8.619125976562499,-3.622427111816406,-0.009992343045769063,-0.0604869832370554,-0.03144257278401998,-0.6322996045834589,8.640587481453293,-3.6328225638058997,-0.008526593177325684,-0.061589184345551544,-0.02932262066210645,-0.7517793212890624,8.674192614746094,-3.5314474487304683,-0.009992343045769063,-0.06035375199644514,-0.037837672333312186,0.9832672031945079,0.11122800433177593,-0.14362073913101628,0.013675579179008851
5,1210.0,-0.6296750366210937,8.590395556640624,-3.83072265625,-0.0033307810152563544,-0.06794793271122963,-0.030776416580968715,-0.6428068083259004,8.630778932643684,-3.679280033913782,-0.012768741692834882,-0.06276370559458154,-0.027378484022574454,-0.6296750366210937,8.621520178222656,-3.6200329101562496,-0.0033307810152563544,-0.06408422673353226,-0.03144257278401998,-0.6342291266224336,8.640934934685825,-3.626581987669186,-0.006991799332556243,-0.06244552932233426,-0.029539918151043766,-0.6296750366210937,8.590395556640624,-3.83072265625,-0.0033307810152563544,-0.06794793271122963,-0.030776416580968715,0.9831122421965459,0.11221193393842822,-0.14394723681982124,0.013341444337701562
5,1220.0,-0.4860229370117187,8.621520178222656,-3.6343981201171873,0.0026646248122050836,-0.06768147023000912,-0.03144257278401998,-0.6114500340630641,8.62892718175948,-3.6703036511544633,-0.009682068391826889,-0.06374725852166706,-0.02819130177486356,-0.6296750366210937,8.621520178222656,-3.5314474487304683,-0.0033307810152563544,-0.06408422673353226,-0.032641653949512274,-0.6372680624271218,8.641937626239773,-3.6216764413906093,-0.005642817435336877,-0.0635869544260213,-0.029633414300753648,-0.6416460449218749,8.621520178222656,-3.6343981201171873,-0.008793261880276775,-0.06768147023000912,-0.03144257278401998,0.9829517674151156,0.1132246488140141,-0.14428017012543912,0.013009010147505396
5,1230.0,-0.6296750366210937,8.690952026367187,-3.5290532470703124,-0.00026646248122050834,-0.06408422673353226,-0.032641653949512274,-0.61509503457467,8.641332150681022,-3.6420535703376333,-0.007798947209705613,-0.0638146521640401,-0.029081372209793305,-0.6296750366210937,8.621520178222656,-3.5434184570312497,-0.0033307810152563544,-0.06408422673353226,-0.032641653949512274,-0.6421868434176263,8.643447516034085,-3.6188066138425423,-0.004490449592474258,-0.06502131439445659,-0.029530013069251175,-0.6296750366210937,8.690952026367187,-3.5290532470703124,-0.00026646248122050834,-0.06408422673353226,-0.032641653949512274,0.9827969879326195,0.1142239687810628,-0.14457693358431006,0.01266790202957966
5,1240.0,-0.59376201171875,8.616731774902343,-3.5314474487304683,-0.003996937218307625,-0.058621745868511835,-0.03637212868659939,-0.6108284300034861,8.636412075525287,-3.6199323460162005,-0.007038545211426016,-0.06277607090493445,-0.030539523505154525,-0.6296750366210937,8.674192614746094,-3.536235852050781,-0.003996937218307625,-0.06408422673353226,-0.032641653949512274,-0.6491821941972525,8.645235044461899,-3.6188903371211723,-0.003495521355229039,-0.06677750560199172,-0.02918427592043616,-0.59376201171875,8.616731774902343,-3.5314474487304683,-0.003996937218307625,-0.058621745868511835,-0.03637212868659939,0.9826467636044591,0.11520674678125113,-0.14484900880150986,0.012308863594298752
5,1250.0,-0.6751648681640625,8.688557824707031,-3.5434184570312497,-0.008793261880276775,-0.05702297098118879,-0.03543951000232761,-0.6236957176356014,8.646841225361637,-3.6046295682192104,-0.007389488545196167,-0.06162545092018532,-0.03151952080458914,-0.6296750366210937,8.674192614746094,-3.536235852050781,-0.005329249624410167,-0.06408422673353226,-0.032908116430732784,-0.6578913935711599,8.64712114699454,-3.6223972366286947,-0.002584863681608023,-0.06886667293867554,-0.028590248199734925,-0.6751648681640625,8.688557824707031,-3.5434184570312497,-0.008793261880276775,-0.05702297098118879,-0.03543951000232761,0.9825004555570781,0.11616513646351583,-0.14510583611023592,0.011950406992915875
5,1260.0,-0.6296750366210937,8.674192614746094,-3.536235852050781,-0.009459418083328047,-0.06461715169597328,-0.0018652373685435584,-0.6248915814326998,8.65231150323853,-3.590950824985525,-0.007803474452822544,-0.06222379107534292,-0.025588664117380026,-0.6368576416015624,8.621520178222656,-3.5434184570312497,-0.005329249624410167,-0.06461715169597328,-0.032908116430732784,-0.6676353894722591,8.649045993178545,-3.6289916870859256,-0.001691856072867098,-0.07123540792423551,-0.027779019037290603,-0.6296750366210937,8.674192614746094,-3.536235852050781,-0.009459418083328047,-0.06461715169597328,-0.03130934154340973,0.9823453362892732,0.11709577375185237,-0.14542389339646816,0.011752075118158966
5,1270.0,-0.7062894897460937,8.607154968261717,-3.8235400512695312,-0.005329249624410167,-0.10178866782623419,-0.032908116430732784,-0.6411711630953787,8.643280196243168,-3.6374686702423267,-0.007308629487140069,-0.07013676642552118,-0.02705255458005058,-0.6751648681640625,8.655039001464843,-3.6296097167968746,-0.005329249624410167,-0.06648238906451683,-0.032908116430732784,-0.6775754923948506,8.651099997140465,-3.6376467719741927,-0.000794329256061515,-0.07376543992983264,-0.02676622561828069,-0.7062894897460937,8.607154968261717,-3.8235400512695312,-0.005329249624410167,-0.10178866782623419,-0.032908116430732784,0.9821612165447142,0.11807136631354406,-0.1459073202987224,0.01138204970582135
5,1280.0,-0.6368576416015624,8.621520178222656,-3.699041564941406,0.007727411955394742,-0.06648238906451683,-0.00013323124061025417,-0.6403084587966155,8.638928192639066,-3.6497832491821427,-0.004301421198633107,-0.06940589095332031,-0.021668689912162517,-0.7062894897460937,8.63109698486328,-3.6296097167968746,-0.0014655436467127959,-0.07194486992953725,-0.032908116430732784,-0.6867791519287008,8.653424192400825,-3.6472320502189257,7.801334183229262e-05,-0.07634289850150794,-0.025490928270655334,-0.6368576416015624,8.621520178222656,-3.699041564941406,-0.003996937218307625,-0.06648238906451683,-0.030776416580968715,0.9819915939506453,0.11908437213458795,-0.14623924609179154,0.011202884721644409
5,1290.0,-0.8355763793945312,8.655039001464843,-3.6296097167968746,0.0095926493239383,-0.08473506902812165,-0.05102756515372735,-0.6793620429161987,8.642150354404222,-3.6457485427050895,-0.0015226070941188258,-0.07247172656828058,-0.027540464960475484,-0.7422025146484375,8.63109698486328,-3.699041564941406,-0.0014655436467127959,-0.08473506902812165,-0.04183460955161981,-0.6943007949017966,8.656002147907309,-3.657148865382373,0.0008796243422298278,-0.07891445154339696,-0.02380775846430279,-0.6631938598632812,8.655039001464843,-3.6296097167968746,-0.0033307810152563544,-0.08473506902812165,-0.012257274136143383,0.9818122975231302,0.12014511266116912,-0.14660820357366267,0.010760993489971957
5,1300.0,-0.7493851196289062,8.63109698486328,-3.6104561035156246,-0.0014655436467127959,-0.07194486992953725,-0.04290045947650185,-0.6933666582587403,8.639939680496035,-3.6386900548671965,-0.00151119440463762,-0.07236635524053191,-0.03061246386368076,-0.7422025146484375,8.655039001464843,-3.6296097167968746,-0.0014655436467127959,-0.08473506902812165,-0.04183460955161981,-0.6994417888030701,8.65858245888443,-3.667298641317085,0.0015975397897857444,-0.08146457109105427,-0.02155670448259802,-0.7493851196289062,8.63109698486328,-3.6104561035156246,-0.0014655436467127959,-0.07194486992953725,-0.012257274136143383,0.9816460381454396,0.12114417397791573,-0.14692800047915183,0.010358937193007005
5,1310.0,-0.7422025146484375,8.664615808105468,-3.746925598144531,-0.0026646248122050836,-0.08700000011849597,-0.04183460955161981,-0.7031338295366798,8.644874906017922,-3.6603371635226636,-0.0017418804861511128,-0.07529308421612473,-0.03285689300126857,-0.7422025146484375,8.664615808105468,-3.6296097167968746,-0.0026646248122050836,-0.08473506902812165,-0.04183460955161981,-0.7020802928398661,8.66073537918749,-3.6776267420669893,0.0022572871766392178,-0.08397046443391537,-0.01868885601138001,-0.7422025146484375,8.664615808105468,-3.746925598144531,-0.0026646248122050836,-0.08700000011849597,-0.006661562030512709,0.9814674094552028,0.12213686513238307,-0.14732706899115064,0.009952140242370466
5,1320.0,-0.6512228515624999,8.722076647949219,-3.536235852050781,-0.0063950995492922,-0.09286217470534716,-0.012257274136143383,-0.6927516339418439,8.660315254404182,-3.6355169012282875,-0.00267252429877933,-0.07880690231396921,-0.028736969228243533,-0.6751648681640625,8.664615808105468,-3.7110125732421873,-0.0026646248122050836,-0.08313629414079861,-0.012257274136143383,-0.702675851552772,8.661952486731279,-3.6879061837909832,0.0028813475463411666,-0.08639353775320291,-0.015344768767536796,-0.6512228515624999,8.722076647949219,-3.536235852050781,-0.0063950995492922,-0.09286217470534716,-0.012257274136143383,0.9812837095365387,0.12308888641735645,-0.1477756109560101,0.009683813573331807
5,1330.0,-0.6440402465820312,8.700528833007812,-3.7995980346679685,-0.004929555902579404,-0.08313629414079861,-0.006661562030512709,-0.6830093564698814,8.668357970124909,-3.668333127916224,-0.003123930619539345,-0.0796727806793351,-0.02432188778869737,-0.6751648681640625,8.664615808105468,-3.746925598144531,-0.00479632466196915,-0.08313629414079861,-0.006661562030512709,-0.7018882002986296,8.661845904186354,-3.697693574588316,0.0034427719950773004,-0.08869911817228063,-0.011812232368415995,-0.6440402465820312,8.700528833007812,-3.7995980346679685,-0.004929555902579404,-0.08313629414079861,-0.006661562030512709,0.9811035557849105,0.12404293945284049,-0.14818857601090885,0.009450287718536782
5,1340.0,-0.6751648681640625,8.652644799804687,-3.7110125732421873,0.0334410413931738,-0.07127871372648598,0.0026646248122050836,-0.6814404588087176,8.665215336060864,-3.6768690169814167,0.0041890637830032836,-0.07799396728876529,-0.018924585268516883,-0.6751648681640625,8.652644799804687,-3.7110125732421873,-0.004929555902579404,-0.08313629414079861,0.0026646248122050836,-0.7001538866773653,8.660339766949924,-3.7063709517553787,0.003862808248603402,-0.0908522719169896,-0.008419131801007406,-0.6751648681640625,8.652644799804687,-3.7110125732421873,-0.003996937218307625,-0.07127871372648598,0.0026646248122050836,0.9809074739176782,0.12517747164240123,-0.14854190346395704,0.009296833921264937
5,1350.0,-0.7445967163085937,8.63827958984375,-3.763685009765625,-0.00479632466196915,-0.08286983165957809,0.008127105677225504,-0.6940717103086929,8.659828186817442,-3.6942322155382583,0.002391986094008797,-0.07896914016292784,-0.013514247079368406,-0.6775590698242188,8.652644799804687,-3.7205893798828122,-0.00479632466196915,-0.08313629414079861,0.0026646248122050836,-0.6975534756525718,8.657626506387308,-3.713410268855107,0.004073516111762203,-0.09275975718151902,-0.005444258308514235,-0.7445967163085937,8.63827958984375,-3.763685009765625,-0.00479632466196915,-0.08286983165957809,0.008127105677225504,0.9807259610655571,0.12612083497008658,-0.14895203826554101,0.009133157998640335
5,1360.0,-0.7206546997070312,8.609549169921875,-3.6942531616210936,-0.0058621745868511835,-0.09512710579572148,0.011324655451871604,-0.6993883081883605,8.649772383438329,-3.6942364047548253,0.0007411539578368008,-0.08220073328948657,-0.008546466573120404,-0.6775590698242188,8.652644799804687,-3.7205893798828122,-0.0026646248122050836,-0.09512710579572148,0.0026646248122050836,-0.6940303587769404,8.653928079781888,-3.7185733148355644,0.004063150227012725,-0.09422017201588333,-0.0030664284783362707,-0.7206546997070312,8.609549169921875,-3.6942531616210936,-0.0058621745868511835,-0.09512710579572148,0.011324655451871604,0.9805346892616299,0.12705661595629356,-0.14942480376071746,0.008975941031715028
5,1370.0,-0.6775590698242188,8.729259252929687,-3.7205893798828122,-0.0026646248122050836,-0.13589586542245927,0.002398162330984575,-0.6950224605155322,8.6656697573366,-3.699506999780423,5.999820382842399e-05,-0.09293975971608112,-0.0063575407922994084,-0.6775590698242188,8.643067993164061,-3.763685009765625,-0.0026646248122050836,-0.10578560504454182,0.002398162330984575,-0.6896656450860549,8.649336954524149,-3.7218255181877495,0.0038265910476957513,-0.09497003949639667,-0.0013434970675973983,-0.6775590698242188,8.729259252929687,-3.7205893798828122,-0.0026646248122050836,-0.08313629414079861,0.002398162330984575,0.9803093966624523,0.12801582958573962,-0.15009613877616826,0.008751189362520853
5,1380.0,-0.6584054565429687,8.659827404785156,-3.794809631347656,0.032774885190122525,-0.1067182237288136,-0.005728943346240929,-0.6876990597210195,8.664501286826312,-3.7185675260938695,0.006602975601087245,-0.09569545251862763,-0.006231821303087713,-0.6775590698242188,8.643067993164061,-3.7205893798828122,-0.0026646248122050836,-0.10578560504454182,0.002398162330984575,-0.684696640984147,8.643935670868698,-3.723211895359851,0.00331972653647725,-0.09482259759012666,-0.000231886718414588,-0.6584054565429687,8.659827404785156,-3.794809631347656,-0.00479632466196915,-0.1067182237288136,-0.005728943346240929,0.9800814529346836,0.12915287882358392,-0.15062236743063626,0.008531232889239015
5,1390.0,-0.6440402465820312,8.643067993164061,-3.7900212280273435,0.0011990811654922875,-0.10578560504454182,-0.0018652373685435584,-0.6789672970932219,8.660214628093861,-3.732858266480565,0.0055221967139682535,-0.09771348302381047,-0.005358504516178883,-0.6655880615234374,8.659827404785156,-3.7205893798828122,-0.0026646248122050836,-0.10578560504454182,0.002398162330984575,-0.6793231809130458,8.63802782462228,-3.722965635174147,0.0025166843401210628,-0.09377916719899174,0.00035563782127543173,-0.6440402465820312,8.643067993164061,-3.7900212280273435,0.0011990811654922875,-0.10578560504454182,-0.0018652373685435584,0.9798727740668963,0.13013162917003915,-0.1511493021193352,0.008306274786830374
5,1400.0,-0.7565677246093749,8.619125976562499,-3.5889082885742187,-0.00479632466196915,-0.09392802463022919,0.006528330789902455,-0.6944873825964525,8.651996897787589,-3.7040682708992962,0.0034584924387807726,-0.09695639134509422,-0.0029811374549626153,-0.6584054565429687,8.643067993164061,-3.746925598144531,-0.00479632466196915,-0.09392802463022919,-0.0018652373685435584,-0.6735955119414375,8.63215475226459,-3.7216570964599147,0.0014729598286343452,-0.09202099347304882,0.0005022327398343646,-0.6584054565429687,8.619125976562499,-3.5889082885742187,-0.00479632466196915,-0.09392802463022919,0.006528330789902455,0.979677981344162,0.13107431630283403,-0.15160674317004516,0.00812230881858667
5,1410.0,-0.6655880615234374,8.662221606445312,-3.718195178222656,-0.005728943346240929,-0.08340275662201911,0.0031975497746461,-0.6887075183818494,8.654041839519135,-3.7068936523639686,0.0016210052817764325,-0.09424566440047921,-0.0017454000090408723,-0.6488286499023437,8.619125976562499,-3.718195178222656,-0.00479632466196915,-0.08340275662201911,-0.0018652373685435584,-0.6675644748835813,8.626956513263059,-3.7199540106199636,0.00028956367546629055,-0.08983110698198706,0.0002881858877917039,-0.6655880615234374,8.662221606445312,-3.718195178222656,-0.005728943346240929,-0.08340275662201911,0.0031975497746461,0.9794888684453168,0.13201357828284607,-0.15202335532450922,0.007929134665866982
5,1420.0,-0.6368576416015624,8.48505068359375,-3.746925598144531,-0.005196018383799913,-0.0767411945915064,-0.006128637068071692,-0.6783375430257921,8.620243608334059,-3.7149000415200812,0.00025760054866116335,-0.09074477043868466,-0.0026220474208470362,-0.6655880615234374,8.619125976562499,-3.7038299682617186,-0.00479632466196915,-0.0782067382382192,-0.0033307810152563544,-0.6614683719166348,8.623048588459602,-3.718250347741822,-0.0009587613771987471,-0.08751448592300352,-0.00018892594302634578,-0.6368576416015624,8.643067993164061,-3.746925598144531,-0.005196018383799913,-0.0767411945915064,-0.006128637068071692,0.979303010444426,0.13296169030656985,-0.15240600235752183,0.0076950042692227865
5,1430.0,-0.6488286499023437,8.611943371582031,-3.7038299682617186,0.003064318534035846,-0.07234456365136802,-0.008393568158446012,-0.6724357644011024,8.618583560983653,-3.712686026868409,0.0008189441457360999,-0.08706472908122134,-0.0037763515683668317,-0.6488286499023437,8.662221606445312,-3.7038299682617186,-0.005196018383799913,-0.0767411945915064,-0.0033307810152563544,-0.6556584466620455,8.620797052838471,-3.7167055625720846,-0.002243932193194296,-0.08532890361827274,-0.000826482984036248,-0.6488286499023437,8.611943371582031,-3.7038299682617186,0.003064318534035846,-0.07234456365136802,-0.008393568158446012,0.9791144782977164,0.13395139901013353,-0.1527620404215355,0.0074578882579361605
5,1440.0,-0.6655880615234374,8.686163623046875,-3.6918589599609373,0.0019984686091538127,-0.0782067382382192,-0.0033307810152563544,-0.6710662238255694,8.632099573396298,-3.7085206134869146,0.0010548490384196425,-0.08529313091262092,-0.0036872374577447365,-0.6368576416015624,8.611943371582031,-3.7038299682617186,-0.005196018383799913,-0.0767411945915064,-0.0033307810152563544,-0.6504326032395444,8.62014676454488,-3.715452158540511,-0.0035561019757007527,-0.08344049808144284,-0.0015533428060548673,-0.6655880615234374,8.686163623046875,-3.6918589599609373,0.0019984686091538127,-0.0782067382382192,-0.0033307810152563544,0.9789212127841544,0.13493185912901104,-0.15314776224392998,0.0072398530969717215
5,1450.0,-0.6200982299804687,8.712499841308594,-3.7014357666015623,-0.007061255752343471,-0.07460949474174233,0.0017320061279333043,-0.6608726250565492,8.648179626978758,-3.707103644109844,-0.0005683719197329803,-0.0831564036784452,-0.0026033887406091286,-0.6464344482421874,8.619125976562499,-3.7038299682617186,-0.007061255752343471,-0.07807350699760894,-0.0033307810152563544,-0.6460216008638289,8.6209077948843,-3.714577439859243,-0.004867233559150025,-0.08191744558288587,-0.0023419650051622522,-0.6200982299804687,8.712499841308594,-3.7014357666015623,-0.007061255752343471,-0.07460949474174233,0.0017320061279333043,0.9787348469142992,0.13586322386650307,-0.15352424242371848,0.007042075295462572
5,1460.0,-0.5793968017578125,8.43956085205078,-3.7421371948242186,-0.01305666157980491,-0.07807350699760894,-0.00013323124061025417,-0.644577460396802,8.606455871993163,-3.7141103542527194,-0.0030660298517473667,-0.08213982434227796,-0.0021093572406093537,-0.6464344482421874,8.643067993164061,-3.706224169921875,-0.007061255752343471,-0.0782067382382192,-0.0033307810152563544,-0.6425757318440763,8.623145374298886,-3.714049859670675,-0.00612750510326731,-0.08074861932911709,-0.0031821321760220123,-0.5793968017578125,8.643067993164061,-3.7421371948242186,-0.01305666157980491,-0.07807350699760894,-0.00013323124061025417,0.9785478485860198,0.1367661363642475,-0.15392369114434157,0.006828563258060089
5,1470.0,-0.6464344482421874,8.619125976562499,-3.763685009765625,-0.01052526800821008,-0.08047166932859352,-0.006128637068071692,-0.6449488579658791,8.60898989290703,-3.724025285355301,-0.00455787748303991,-0.08180619333954108,-0.0029132132061018214,-0.6464344482421874,8.619125976562499,-3.706224169921875,-0.007061255752343471,-0.07807350699760894,-0.006128637068071692,-0.6400262608942116,8.626964120295014,-3.7138228393458768,-0.00729752961357082,-0.07986760102495523,-0.0040511134605573105,-0.6464344482421874,8.619125976562499,-3.763685009765625,-0.01052526800821008,-0.08047166932859352,-0.006128637068071692,0.9783575139565699,0.13768608898937845,-0.15432356570392877,0.00658428826480263
5,1480.0,-0.6536170532226562,8.643067993164061,-3.706224169921875,-0.006261868308681946,-0.08593415019361395,-0.009059724361497283,-0.6466824970172345,8.615805512958437,-3.720465062268616,-0.0048986756481683175,-0.08263178471035565,-0.004142515437180914,-0.6464344482421874,8.619125976562499,-3.706224169921875,-0.006261868308681946,-0.07807350699760894,-0.0075941807147844875,-0.6380361252535699,8.632034792532952,-3.7140285236134916,-0.00837290627463427,-0.07918195268558446,-0.004913368572753071,-0.6536170532226562,8.643067993164061,-3.706224169921875,-0.006261868308681946,-0.08593415019361395,-0.009059724361497283,0.9781594365392434,0.13862893757923153,-0.1547454026281413,0.00632413949386023
5,1490.0,-0.6727706665039062,8.616731774902343,-3.6822821533203123,-0.005462480865020421,-0.07594180714784488,-0.013189892820415163,-0.6519001309145689,8.615990765347219,-3.7128284804789558,-0.005011436691538739,-0.0812937891978535,-0.005951990913827764,-0.6536170532226562,8.643067993164061,-3.6822821533203123,-0.006261868308681946,-0.07887289444127046,-0.0075941807147844875,-0.6361793594076524,8.637608717649856,-3.7150095140040147,-0.009372469465315295,-0.07860550473696663,-0.005746084467241076,-0.6727706665039062,8.616731774902343,-3.6822821533203123,-0.005462480865020421,-0.07594180714784488,-0.013189892820415163,0.9779679202811797,0.13957823801774116,-0.15511304598956058,0.00605023442581905
5,1500.0,-0.59376201171875,8.712499841308594,-3.6152445068359373,-0.005728943346240929,-0.07567534466662437,-0.0075941807147844875,-0.6402725070754052,8.635292580539494,-3.693311685750352,-0.005154938022479178,-0.08017010029160768,-0.00628042887401911,-0.6703764648437499,8.643067993164061,-3.6822821533203123,-0.006261868308681946,-0.07887289444127046,-0.0075941807147844875,-0.6341319015640233,8.642834912034258,-3.717075669700169,-0.010306845136731404,-0.07806920784474794,-0.006564799444199689,-0.59376201171875,8.712499841308594,-3.6152445068359373,-0.005728943346240929,-0.07567534466662437,-0.0075941807147844875,0.9777747929799604,0.14052091177595794,-0.15548840146829246,0.005803841442055407
5,1510.0,-0.7637503295898437,8.719682446289061,-3.6391865234374996,-0.011857580414312622,-0.07887289444127046,0.0010658499248820334,-0.6649680715782929,8.652170553689407,-3.682486653287782,-0.0064954665008458675,-0.07991065912154023,-0.0048111731142388816,-0.6703764648437499,8.640673791503906,-3.6822821533203123,-0.011857580414312622,-0.07887289444127046,-0.0074609494741742334,-0.6317325611885151,8.647027484552991,-3.7201177590371928,-0.01115753077764078,-0.07750616606868739,-0.0074221517312644805,-0.6464344482421874,8.719682446289061,-3.6391865234374996,-0.011857580414312622,-0.07887289444127046,0.0010658499248820334,0.9775845833809679,0.14142752639464273,-0.1558697928657682,0.005589703546186914
5,1520.0,-0.6703764648437499,8.640673791503906,-3.801992236328125,-0.018252679963604822,-0.08713323135910622,0.004663093421358896,-0.6660497502313842,8.649871201252306,-3.7063877698958505,-0.008846909193397659,-0.08135517356905343,-0.0029163198071193264,-0.6392518432617187,8.712499841308594,-3.7229835815429686,-0.01438897398590745,-0.08300306290018834,-0.0074609494741742334,-0.6291278992435884,8.649895053823435,-3.7234005123821663,-0.011883338727990703,-0.07684790173282147,-0.008366447738486056,-0.6703764648437499,8.640673791503906,-3.801992236328125,-0.018252679963604822,-0.08713323135910622,0.004663093421358896,0.9773890940192281,0.14229933386993912,-0.156308902503788,0.0053838156084008255
5,1530.0,-0.5003881469726562,8.573636145019531,-3.833116857910156,-0.01438897398590745,-0.08566768771239343,-0.0074609494741742334,-0.6329174295796387,8.634624190005752,-3.731733587498712,-0.009955322151899617,-0.08221767639772144,-0.0038252457405303078,-0.6392518432617187,8.683769421386717,-3.7229835815429686,-0.014788667707738214,-0.08300306290018834,-0.0074609494741742334,-0.6269085609496357,8.65151056719376,-3.7258714814195266,-0.012448994155510257,-0.07605533432312145,-0.00938721130759126,-0.6464344482421874,8.573636145019531,-3.706224169921875,-0.01438897398590745,-0.08566768771239343,-0.0074609494741742334,0.9771885808845132,0.14319769684181236,-0.1567502263304555,0.00512479789480339
5,1540.0,-0.6392518432617187,8.712499841308594,-3.7229835815429686,-0.014788667707738214,-0.08300306290018834,-0.016787136316892024,-0.6341843123160548,8.65019932026632,-3.7299835863075637,-0.010921991263067336,-0.08237475369821483,-0.006417623855802652,-0.6296750366210937,8.683769421386717,-3.7229835815429686,-0.014788667707738214,-0.08300306290018834,-0.015055130188958722,-0.6258178223620521,8.651980940028356,-3.726774729060706,-0.012848256782653894,-0.07515928361473376,-0.010403220992464315,-0.6392518432617187,8.712499841308594,-3.7229835815429686,-0.014788667707738214,-0.08300306290018834,-0.016787136316892024,0.9769923337463747,0.14410198800222118,-0.15715400354532907,0.00481830097593646
5,1550.0,-0.5434837768554687,8.683769421386717,-3.6942531616210936,-0.0159877488732305,-0.0767411945915064,-0.015055130188958722,-0.6160442052239377,8.6569133404904,-3.72283750137027,-0.011935142785099969,-0.08124804187687315,-0.008145125122433866,-0.6296750366210937,8.683769421386717,-3.7229835815429686,-0.01438897398590745,-0.0767411945915064,-0.015055130188958722,-0.6262898651363461,8.651314323371071,-3.7258767033679483,-0.01310538249134528,-0.07427490892501079,-0.011306271932102959,-0.5434837768554687,8.683769421386717,-3.6942531616210936,-0.0159877488732305,-0.0767411945915064,-0.015055130188958722,0.9767994891186126,0.14499777514752482,-0.15753708112624296,0.004524525401509946
5,1560.0,-0.6296750366210937,8.686163623046875,-3.7229835815429686,-0.01119142421126135,-0.07314395109502954,-0.016120980113840756,-0.6187703715033689,8.662763397001696,-3.72286671740481,-0.011786399070332245,-0.07962722372050443,-0.009740296120715246,-0.6296750366210937,8.683769421386717,-3.7229835815429686,-0.01119142421126135,-0.07314395109502954,-0.015055130188958722,-0.6283095034260389,8.649650218634305,-3.7231692300316324,-0.013266794381227553,-0.07358358518942916,-0.012011237855421337,-0.6296750366210937,8.686163623046875,-3.7229835815429686,-0.01119142421126135,-0.07314395109502954,-0.016120980113840756,0.97660610563902,0.14591790707063776,-0.1578942211853325,0.00423009940656437
5,1570.0,-0.7541735229492187,8.609549169921875,-3.766079211425781,-0.007327718233563979,-0.06195252688376819,-0.011724349173702367,-0.6458510017925388,8.652120551585732,-3.7315092162090044,-0.010894662902978592,-0.07609228435315718,-0.01013710673131267,-0.5913678100585937,8.657433203124999,-3.7229835815429686,-0.01119142421126135,-0.06195252688376819,-0.015055130188958722,-0.6315836769980937,8.64742207592128,-3.718612081329134,-0.01338686673816107,-0.07329354893328664,-0.012471878761086411,-0.7541735229492187,8.609549169921875,-3.766079211425781,-0.007327718233563979,-0.06195252688376819,-0.011724349173702367,0.9764191578953335,0.14685357048686754,-0.15818952876635692,0.003966096179450664
5,1580.0,-0.5913678100585937,8.657433203124999,-3.763685009765625,-0.008393568158446012,-0.05555742733447599,-0.01119142421126135,-0.6349543634457498,8.653183081893586,-3.7379443749203287,-0.010394443954072076,-0.07198531294942094,-0.010347970227302406,-0.6296750366210937,8.626308581542968,-3.7229835815429686,-0.01119142421126135,-0.06195252688376819,-0.011724349173702367,-0.6359050505035704,8.645233333859704,-3.7122342010492817,-0.013502147655892614,-0.0735826305922604,-0.012668114811340213,-0.5913678100585937,8.657433203124999,-3.763685009765625,-0.008393568158446012,-0.05555742733447599,-0.01119142421126135,0.9762346862087873,0.14778190848757713,-0.15846948215121337,0.0037105516202037008
5,1590.0,-0.5363011718749999,8.626308581542968,-3.706224169921875,-0.011857580414312622,-0.05688973974057853,-0.016520673835671518,-0.6152237251315998,8.647808181823462,-3.731600333920638,-0.010687071246120186,-0.06896619830765247,-0.01158251094897623,-0.6464344482421874,8.609549169921875,-3.7134067749023436,-0.011857580414312622,-0.06195252688376819,-0.011724349173702367,-0.6413023002602463,8.643676546136714,-3.704354075071267,-0.013608936113428586,-0.07452981236505692,-0.012588505081478353,-0.5363011718749999,8.626308581542968,-3.706224169921875,-0.011857580414312622,-0.05688973974057853,-0.016520673835671518,0.9760502725341711,0.14869675593599474,-0.15875580755653287,0.003425467435960421
5,1600.0,-0.6464344482421874,8.583212951660157,-3.6559459350585937,-0.014122511504686942,-0.06448392045536303,-0.010924961730040842,-0.6214658697537174,8.634889135790802,-3.7164694541482293,-0.011374159297833539,-0.06806974273719459,-0.011451001105189153,-0.6464344482421874,8.626308581542968,-3.706224169921875,-0.014122511504686942,-0.06448392045536303,-0.01572128639200999,-0.6476802907026079,8.643236485366664,-3.695583582915363,-0.013663565004973477,-0.07606550335007123,-0.012225816890424054,-0.6464344482421874,8.583212951660157,-3.6559459350585937,-0.014122511504686942,-0.06448392045536303,-0.010924961730040842,0.975862276130798,0.1495966796461876,-0.15907130322855625,0.0031578398981877624
5,1610.0,-0.6703764648437499,8.59278975830078,-3.7134067749023436,-0.016387442595061263,-0.10045635542013165,-0.021450229738250923,-0.631247988771724,8.626469260292797,-3.7158569182990524,-0.012376815957279085,-0.074547065273782,-0.013450846831801509,-0.6464344482421874,8.626308581542968,-3.687070556640625,-0.016387442595061263,-0.07794027575699869,-0.01572128639200999,-0.6545193100287889,8.644155810677074,-3.6866181289783366,-0.013601990622559243,-0.07798598712517509,-0.011586409643117968,-0.6703764648437499,8.59278975830078,-3.7134067749023436,-0.016387442595061263,-0.10045635542013165,-0.021450229738250923,0.975646544183093,0.1504941828431706,-0.15955384130032396,0.0028095338163666595
5,1620.0,-0.6655880615234374,8.633491186523438,-3.687070556640625,-0.01851914244482533,-0.07794027575699869,-0.01572128639200999,-0.6381160033220667,8.627873645538926,-3.710099645967367,-0.013605281254788337,-0.07522570737042535,-0.013904934743843207,-0.6655880615234374,8.633491186523438,-3.6559459350585937,-0.016387442595061263,-0.0877993875621575,-0.012257274136143383,-0.6610453850887451,8.646277165299548,-3.678113608907766,-0.013364534064394081,-0.08004331042941126,-0.010708682822552145,-0.6655880615234374,8.633491186523438,-3.687070556640625,-0.01851914244482533,-0.07794027575699869,-0.01572128639200999,0.9754493157813746,0.151375869507536,-0.15993033142655572,0.0025035099914807284
5,1630.0,-0.6440402465820312,8.686163623046875,-3.6439749267578123,-0.020650842294589397,-0.0877993875621575,-0.012257274136143383,-0.6393008519740596,8.639531641040517,-3.6968747021254567,-0.015014393462748549,-0.07774044340877177,-0.013575402622303242,-0.6703764648437499,8.645462194824217,-3.6439749267578123,-0.016387442595061263,-0.0877993875621575,-0.012257274136143383,-0.6664725213399005,8.649078382948531,-3.6707341745722966,-0.012919926613633422,-0.08203244418032238,-0.009681717352791377,-0.6440402465820312,8.686163623046875,-3.6439749267578123,-0.020650842294589397,-0.0877993875621575,-0.012257274136143383,0.9752447184609513,0.1522438999349984,-0.16035795406806289,0.0022046799557553895
5,1640.0,-0.689530078125,8.702923034667968,-3.6104561035156246,-0.015188361429568975,-0.0895313936900908,-0.006661562030512709,-0.6493466972042478,8.652209919766007,-3.6795909824034903,-0.015049187056112634,-0.08009863346503558,-0.012192634503945136,-0.6655880615234374,8.67658681640625,-3.6439749267578123,-0.015188361429568975,-0.08660030639666522,-0.006661562030512709,-0.6700268147667543,8.651947380137743,-3.665118528898379,-0.012284949207645472,-0.08380781012852033,-0.008642766894277419,-0.689530078125,8.702923034667968,-3.6104561035156246,-0.015188361429568975,-0.0895313936900908,-0.006661562030512709,0.9750343422356476,0.1531339349622841,-0.1607926830467185,0.001934554910742831
5,1650.0,-0.7661445312499999,8.645462194824217,-3.5984850952148437,-0.007327718233563979,-0.0860673814342242,-0.0026646248122050836,-0.6727062640133982,8.65086037477765,-3.663369804965761,-0.013504893291602904,-0.08129238305887332,-0.010287032565597126,-0.689530078125,8.686163623046875,-3.6200329101562496,-0.007327718233563979,-0.0877993875621575,-0.0026646248122050836,-0.6709800551152991,8.654470233964686,-3.6616663897456876,-0.011524967522069256,-0.08526936048785859,-0.007749447594749109,-0.7661445312499999,8.645462194824217,-3.5984850952148437,-0.007327718233563979,-0.0860673814342242,-0.0026646248122050836,0.9748207858198732,0.15405905815335813,-0.16120602684444185,0.0016908706201674139
5,1660.0,-0.6416460449218749,8.67658681640625,-3.6631285400390623,-0.0005329249624410167,-0.08660030639666522,0.0010658499248820334,-0.6664942201950936,8.656005663103372,-3.6633215519804216,-0.010910499625770526,-0.08235396772643169,-0.008016456067501294,-0.7302315063476562,8.67658681640625,-3.6200329101562496,-0.007327718233563979,-0.0895313936900908,-0.0026646248122050836,-0.6688464912314173,8.656500760540641,-3.6603520736099706,-0.01072203637377442,-0.08635401480551898,-0.007143567168855863,-0.6416460449218749,8.67658681640625,-3.6631285400390623,-0.0005329249624410167,-0.08660030639666522,0.0010658499248820334,0.9745982441815458,0.15501295177038257,-0.16163873399363196,0.001472037573291457
5,1670.0,-0.7302315063476562,8.686163623046875,-3.6200329101562496,0.0005329249624410167,-0.09299540594595741,0.0035972434964768626,-0.6792416774256061,8.662037255092073,-3.6546638236155875,-0.00862181470812822,-0.08448225537033684,-0.005693716154705663,-0.7302315063476562,8.645462194824217,-3.6200329101562496,-0.007327718233563979,-0.09299540594595741,-0.0026646248122050836,-0.6635081844971801,8.658078648291673,-3.660738281508242,-0.009922309264537623,-0.08702411958455128,-0.006917087234205053,-0.7302315063476562,8.686163623046875,-3.6200329101562496,0.0005329249624410167,-0.09299540594595741,-0.011724349173702367,0.9743700932795575,0.15597013408082552,-0.16209458193585877,0.0012590092274443808
5,1680.0,-0.7398083129882812,8.590395556640624,-3.6200329101562496,-0.010658499248820334,-0.09832465557036758,-0.003064318534035846,-0.6913550045381411,8.647708915401784,-3.64773764092372,-0.009029151616266643,-0.08725073541034298,-0.005167836630571699,-0.6416460449218749,8.667010009765624,-3.6631285400390623,-0.0035972434964768626,-0.09299540594595741,-0.003064318534035846,-0.6552174966751347,8.659356127139512,-3.662075843153312,-0.009099393962025722,-0.08727054867263447,-0.007087928580509659,-0.7398083129882812,8.590395556640624,-3.6200329101562496,-0.010658499248820334,-0.09832465557036758,-0.003064318534035846,0.9741452988572119,0.15687782481166743,-0.16257086448185956,0.000999409012251315
5,1690.0,-0.5722141967773438,8.645462194824217,-3.821145849609375,-0.009859111805158808,-0.09539356827694198,-0.00892649312088703,-0.6675268429859816,8.647259571286272,-3.6824192826608515,-0.009195143654045076,-0.08887930198366278,-0.005919567928634766,-0.6248866333007812,8.667010009765624,-3.6200329101562496,-0.009859111805158808,-0.09299540594595741,-0.00892649312088703,-0.6446374902543813,8.660453341204892,-3.663422550062232,-0.008164124345036673,-0.08714086228429507,-0.007601154455741512,-0.5722141967773438,8.645462194824217,-3.821145849609375,-0.009859111805158808,-0.09539356827694198,-0.00892649312088703,0.9739176539366339,0.15779227758119593,-0.16305056312686975,0.0007171822031936947
5,1700.0,-0.6248866333007812,8.667010009765624,-3.6918589599609373,-0.0035972434964768626,-0.08966462493070106,-0.012523736617363892,-0.6589988010489416,8.651209658982143,-3.6843072181208685,-0.008075563622531434,-0.08903636657307044,-0.007240401666380592,-0.6248866333007812,8.667010009765624,-3.670311145019531,-0.009859111805158808,-0.08966462493070106,-0.011724349173702367,-0.6327142296113796,8.661279263316658,-3.663991287190556,-0.007002615297485689,-0.08676214348202134,-0.008360959401968687,-0.6248866333007812,8.667010009765624,-3.6918589599609373,-0.0035972434964768626,-0.08966462493070106,-0.012523736617363892,0.9736900649372563,0.15874010820427695,-0.16349022947215014,0.000424684494359707
5,1710.0,-0.5674257934570313,8.705317236328124,-3.584119885253906,-0.033307810152563545,-0.08660030639666522,-0.012523736617363892,-0.6406841995305596,8.66203117445134,-3.6642697515474763,-0.013122012928537857,-0.0885491545377894,-0.008297068656577252,-0.612915625,8.678981018066406,-3.6918589599609373,-0.0035972434964768626,-0.08660030639666522,-0.012523736617363892,-0.6203222541361604,8.661572306193259,-3.663479223883188,-0.0055136453800760914,-0.08633169294787196,-0.009272321919675416,-0.5674257934570313,8.705317236328124,-3.584119885253906,-0.0003996937218307625,-0.08660030639666522,-0.012523736617363892,0.9734872721949406,0.159542390354412,-0.16391688277843677,0.00010997569942119113
5,1720.0,-0.7302315063476562,8.678981018066406,-3.670311145019531,0.0006661562030512709,-0.08313629414079861,-0.011724349173702367,-0.6585936608939789,8.665421143174353,-3.6654780302418875,-0.010364379102220031,-0.08746658245839126,-0.008982524760002275,-0.612915625,8.678981018066406,-3.670311145019531,-0.0003996937218307625,-0.08313629414079861,-0.012523736617363892,-0.6081211737266001,8.661132733675398,-3.661864862662467,-0.003655625638511759,-0.08608432091203011,-0.010265844253653943,-0.7302315063476562,8.678981018066406,-3.670311145019531,0.0006661562030512709,-0.08313629414079861,-0.011724349173702367,0.9732611150517917,0.16051007601555572,-0.16431459892666503,-0.0001732200707164356
