activity,time_ms,ax,ay,az,gx,gy,gz,ax_ema,ay_ema,az_ema,gx_ema,gy_ema,gz_ema,ax_median,ay_median,az_median,gx_median,gy_median,gz_median,ax_lp,ay_lp,az_lp,gx_lp,gy_lp,gz_lp,ax_outlier,ay_outlier,az_outlier,gx_outlier,gy_outlier,gz_outlier,q0,q1,q2,q3
4,0.0,0.16280571289062498,8.506598498535157,-3.8139632446289062,0.10685145496942385,0.009859111805158808,0.19664931114073517,0.16280571289062498,8.506598498535157,-3.8139632446289062,0.10685145496942385,0.009859111805158808,0.19664931114073517,0.16280571289062498,8.506598498535157,-3.526659045410156,0.07714088831333717,0.009859111805158808,0.18066156226750466,0.3110826785219578,8.641873567068872,-3.728967848597052,0.07853019399853567,-0.00272599111265967,0.21019432755671325,0.16280571289062498,8.506598498535157,-3.8139632446289062,0.10685145496942385,0.009859111805158808,0.19664931114073517,0.9999983394706258,0.001534071631779963,3.0160257186625443e-05,0.000983244922993888
4,10.0,0.44053310546874996,8.535328918457031,-3.6655227416992187,0.10711791745064435,0.06701531402695785,0.19345176136608905,0.21835119140625,8.512344582519532,-3.7842751440429687,0.10690474746566794,0.021290352249518616,0.19600980118580597,0.16280571289062498,8.535328918457031,-3.526659045410156,0.0895313936900908,0.009859111805158808,0.18652373685435583,0.3258210711377998,8.633220310937645,-3.750663117120519,0.07806883860170713,-0.005501242166135489,0.21048059870294253,0.44053310546874996,8.535328918457031,-3.6655227416992187,0.10711791745064435,0.06701531402695785,0.19345176136608905,0.9999933408186041,0.0030680699024115588,0.00031380741482875987,0.0019510997994668575
4,20.0,0.19393033447265623,8.772354882812499,-3.526659045410156,0.07714088831333717,0.04356661567955311,0.18066156226750466,0.21346702001953127,8.564346642578126,-3.7327519243164065,0.1009519756352018,0.025745604935525516,0.1929401534021457,0.19393033447265623,8.695740429687499,-3.6655227416992187,0.0895313936900908,0.009859111805158808,0.19345176136608905,0.34648853249767947,8.619100144886474,-3.782800435508286,0.07773656827978712,-0.00918262100032598,0.2107058807657938,0.19393033447265623,8.772354882812499,-3.526659045410156,0.07714088831333717,0.04356661567955311,0.18066156226750466,0.9999858772126831,0.004453395209553092,0.0005097666355819805,0.002855308085970089
4,30.0,0.1005564697265625,8.884882360839843,-3.423708374023437,0.0895313936900908,-0.04090199086734803,0.18652373685435583,0.19088490996093752,8.62845378623047,-3.6709432142578127,0.0986678592461796,0.012416085774950807,0.19165687009258775,0.34237083740234375,8.712499841308594,-3.6655227416992187,0.08220367545652682,-0.04090199086734803,0.19345176136608905,0.3737508420510134,8.597217932688965,-3.827216373744609,0.0779313460543705,-0.013361830363632305,0.21055955948075086,0.1005564697265625,8.884882360839843,-3.423708374023437,0.0895313936900908,-0.04090199086734803,0.18652373685435583,0.9999753677684226,0.005902002025966329,0.0002943400963411275,0.0037872935457025406
4,40.0,0.34237083740234375,8.695740429687499,-3.8139632446289062,0.08220367545652682,-0.14935222072409493,0.24208116418883183,0.22118209544921877,8.641911114921875,-3.6995472203320316,0.09537502248824906,-0.01993757552485834,0.20174172891183656,0.34237083740234375,8.712499841308594,-3.8139632446289062,0.07714088831333717,-0.04090199086734803,0.19904747347171972,0.40716475235496796,8.566331184079356,-3.8835600664411927,0.07917093671476094,-0.01739331398084755,0.20952617787739153,0.34237083740234375,8.695740429687499,-3.8139632446289062,0.08220367545652682,-0.14935222072409493,0.24208116418883183,0.9999606516674843,0.0073154608345083185,-0.0004931002837809856,0.004993596061883679
4,50.0,0.5219359619140624,8.712499841308594,-3.9504327392578125,0.06435068921475276,-0.10112251162318292,0.22396171546583726,0.28133286874218755,8.65602886019922,-3.749724324117188,0.08917015583354981,-0.036174562744523256,0.20618572622263673,0.5219359619140624,8.695740429687499,-3.9504327392578125,0.06435068921475276,-0.04090199086734803,0.22396171546583726,0.4448291073071831,8.527050161608212,-3.949084446464319,0.0820301929392696,-0.020939707220059178,0.2070057999823907,0.5219359619140624,8.712499841308594,-3.9504327392578125,0.06435068921475276,-0.10112251162318292,0.22396171546583726,0.9999434692100705,0.008637501175507063,-0.0010601554734793633,0.006109666762104777
4,60.0,0.7302315063476562,8.645462194824217,-4.091690637207031,0.04822970910091201,-0.0031975497746461,0.19904747347171972,0.3711125962632813,8.65391552712422,-3.8181175867351564,0.08098206648702225,-0.029579160150547824,0.20475807567245333,0.5530605834960938,8.645462194824217,-4.091690637207031,0.04822970910091201,-0.0031975497746461,0.24208116418883183,0.4841633682526371,8.481864036412428,-4.019651515608508,0.08705530791000582,-0.02438651405264289,0.20248251934854633,0.7302315063476562,8.645462194824217,-4.091690637207031,0.04822970910091201,-0.0031975497746461,0.19904747347171972,0.9999253337660544,0.00987438060850216,-0.001161672536261659,0.007104506834498374
4,70.0,0.7206546997070312,8.494627490234375,-4.1563340820312495,0.04210107203284032,0.07487595722296285,0.24634456388835996,0.4410210169520313,8.62205791974625,-3.8857608857943755,0.07320586759618587,-0.008688136675845691,0.21307537331563464,0.5530605834960938,8.494627490234375,-4.1563340820312495,0.04822970910091201,0.053825421206542684,0.22396171546583726,0.523286710164732,8.434918331694742,-4.090921754264061,0.09460988209405263,-0.028652993603993007,0.19559456089836674,0.7206546997070312,8.494627490234375,-4.1563340820312495,0.04210107203284032,0.07487595722296285,0.24634456388835996,0.9999034823881394,0.011077466482138509,-0.0008757956055880658,0.008339581911935907
4,80.0,0.5530605834960938,7.994239343261718,-4.278438366699218,0.0430336907171121,0.1148453294060391,0.24847626373812404,0.4634289302608438,8.496494204449345,-3.9642963819753443,0.06717143222037111,0.01601855654053127,0.22015555140013254,0.5626373901367188,7.996633544921875,-4.1563340820312495,0.04822970910091201,0.053825421206542684,0.22222970933790395,0.5618919599656533,8.391424867956507,-4.159027037909656,0.10469735016532787,-0.034508688690546394,0.18619728402384159,0.5530605834960938,7.994239343261718,-4.278438366699218,0.0430336907171121,0.1148453294060391,0.24847626373812404,0.9998785021670252,0.0122845354870145,-0.00037448750830581325,0.009588057738685693
4,90.0,0.45968671875,7.7763669921875,-4.247313745117188,0.09192955602107537,0.053825421206542684,0.22222970933790395,0.46268048795867506,8.352468761996976,-4.020899854603713,0.07212305698051197,0.023579929473733552,0.22057038298768686,0.5626373901367188,7.996633544921875,-4.247313745117188,0.09192955602107537,0.053825421206542684,0.22222970933790395,0.6009739273040989,8.35598489015154,-4.22084563663626,0.1168431370907366,-0.04189318470770007,0.17452647520862868,0.45968671875,7.7763669921875,-4.247313745117188,0.09192955602107537,0.053825421206542684,0.22222970933790395,0.9998483151850731,0.01373949706173749,-0.00016381314231168803,0.010702616844292665
4,100.0,0.5626373901367188,7.996633544921875,-4.149151477050781,0.15095099561141798,-0.07794027575699869,0.15907810128864347,0.48267186839428383,8.281301718581956,-4.046550179093127,0.08788864470669318,0.003275888427587104,0.2082719266478782,0.5626373901367188,7.996633544921875,-4.278438366699218,0.15095099561141798,-0.07794027575699869,0.15907810128864347,0.6417403103089702,8.330284273287397,-4.273904790754815,0.1301336257289665,-0.0496850557439194,0.1612973336871926,0.5626373901367188,7.996633544921875,-4.149151477050781,0.15095099561141798,-0.07794027575699869,0.15907810128864347,0.9998136859983426,0.015495913373706212,-0.0006151213801740438,0.011493110319233354
4,110.0,0.6344634399414062,8.37012900390625,-4.453215087890625,0.17120214418417662,-0.15281623297996152,0.12550382865485943,0.5130301827037083,8.299067175646815,-4.127883160852626,0.10455134460218987,-0.027942535853922625,0.19171830704927445,0.5626373901367188,8.37012900390625,-4.426878869628906,0.17120214418417662,-0.15281623297996152,0.12550382865485943,0.6847365651565526,8.312054900975822,-4.315945775789481,0.14344274091197343,-0.05609236109376728,0.14757440075381767,0.6344634399414062,8.37012900390625,-4.453215087890625,0.17120214418417662,-0.15281623297996152,0.12550382865485943,0.9997749753165553,0.017357455981505364,-0.0014426142598681743,0.012109348319722813
4,120.0,0.5626373901367188,8.525752111816406,-4.4819455078125,0.2351531396770986,-0.19398468632853008,0.10725114869125461,0.5229516241903104,8.344404162880734,-4.198695630244601,0.13067170361717162,-0.061150965948844116,0.1748248753776705,0.6344634399414062,8.497021691894531,-4.426878869628906,0.19718223610317617,-0.15281623297996152,0.10725114869125461,0.7296166536632999,8.296350489285224,-4.344812425123412,0.15574134039201,-0.05942306594566543,0.13450040368606048,0.5626373901367188,8.525752111816406,-4.4819455078125,0.2351531396770986,-0.19398468632853008,0.10725114869125461,0.9997262426779072,0.01954159894748237,-0.002461573103929035,0.012629579151492161
4,130.0,0.8690952026367187,8.667010009765624,-4.426878869628906,0.2110382851266426,-0.18465849948581228,0.09472741207389071,0.5921803398795921,8.408925332257713,-4.244332278121463,0.14674501991906583,-0.08585247265623776,0.15880538271691455,0.8690952026367187,8.497021691894531,-4.426878869628906,0.19718223610317617,-0.15281623297996152,0.10165543658562394,0.7751954721942663,8.278061629188027,-4.358957424549588,0.16636981796038638,-0.0587791541559383,0.1230727421160836,0.8690952026367187,8.667010009765624,-4.426878869628906,0.2110382851266426,-0.18465849948581228,0.09472741207389071,0.9996749781947718,0.021602069844934343,-0.0034683263057189223,0.013086606219107285
4,140.0,0.9648632690429687,8.497021691894531,-4.410119458007812,0.19718223610317617,-0.0991240430140291,0.10165543658562394,0.6667169257122674,8.426544604185077,-4.277489714098733,0.15683246315588792,-0.08850678672779602,0.14737539349065645,0.8762778076171874,8.497021691894531,-4.426878869628906,0.19718223610317617,-0.0991240430140291,0.09472741207389071,0.8198087655007164,8.25401325592107,-4.357822139099578,0.17517766476670116,-0.054376944832360274,0.11404982889940088,0.9648632690429687,8.497021691894531,-4.410119458007812,0.19718223610317617,-0.0991240430140291,0.10165543658562394,0.9996212380299175,0.02358600546396419,-0.004062772356891259,0.01358582741555428
4,150.0,0.8762778076171874,8.204929089355469,-4.4196962646484375,0.183992343282761,-0.06994640132038345,0.08153751925347555,0.7086291020932514,8.382221501219156,-4.305931024208674,0.16226443918126254,-0.0847947096463135,0.13420781864322026,0.9217676391601562,8.233659509277343,-4.426878869628906,0.1898545178696122,-0.06994640132038345,0.08819908128398826,0.8620689358066591,8.223712724704631,-4.34171666659151,0.18245674397474165,-0.04743442563903203,0.1079527516824576,0.8762778076171874,8.204929089355469,-4.4196962646484375,0.183992343282761,-0.06994640132038345,0.08153751925347555,0.9995667548656854,0.025502765331219514,-0.004503854930735285,0.01398666573942961
4,160.0,1.0630255371093749,8.233659509277343,-4.441244079589843,0.1898545178696122,-0.03104287906218922,0.08700000011849597,0.7795083890964761,8.352509102830794,-4.332993635284908,0.16778245491893248,-0.07404434352948865,0.12476625493827541,0.9217676391601562,8.204929089355469,-4.4196962646484375,0.1898545178696122,-0.03104287906218922,0.08819908128398826,0.9014048265390291,8.18868934714126,-4.311683648449117,0.1887489736303043,-0.039791234268886755,0.10508942821111948,1.0630255371093749,8.233659509277343,-4.441244079589843,0.1898545178696122,-0.03104287906218922,0.08700000011849597,0.9995079545994575,0.02744342064695844,-0.004772310853328727,0.014419861466811706
4,170.0,0.9217676391601562,8.085219006347655,-4.592078784179687,0.1802618685456739,0.03357427263378405,0.08819908128398826,0.8079602391092122,8.299051083534167,-4.384810665063864,0.17027833764428077,-0.05252062029683411,0.11745282020741799,0.9217676391601562,8.085219006347655,-4.4196962646484375,0.1898545178696122,0.03357427263378405,0.08819908128398826,0.938119679141565,8.151329558009369,-4.269763492137515,0.19467927820162087,-0.033499627677694446,0.10556254280817558,0.9217676391601562,8.085219006347655,-4.592078784179687,0.2107718226454221,0.03357427263378405,0.08819908128398826,0.9994480621232428,0.02933270582883593,-0.00470447768722965,0.014867124017237143
4,180.0,0.8643067993164062,7.860164050292968,-4.185064501953125,0.19025421159144296,0.05875497710912209,0.08979785617131131,0.819229551150651,8.211273676885927,-4.344861432441717,0.17427351243371322,-0.03026550081564287,0.11192182740019666,0.97683427734375,7.905653881835937,-4.185064501953125,0.19025421159144296,0.03357427263378405,0.08979785617131131,0.9731443679799429,8.113969101363931,-4.219504632574518,0.20085150934750715,-0.03043869233784671,0.1092762239862397,0.8643067993164062,7.860164050292968,-4.185064501953125,0.19025421159144296,0.05875497710912209,0.08979785617131131,0.9993832948715302,0.0312701222949002,-0.004506048978022893,0.015326607778424815
4,190.0,1.0319009155273438,7.81467421875,-4.005499377441406,0.2107718226454221,0.03410719759622507,0.09152986229924462,0.8617638240259896,8.131953785258741,-4.276989021441655,0.181573174476055,-0.017390961133269284,0.10784343438000625,0.97683427734375,7.905653881835937,-4.060566015625,0.2107718226454221,0.03357427263378405,0.09152986229924462,1.0075051833032587,8.077990912956711,-4.165860072333003,0.20779403044071987,-0.031960317240076336,0.11594249106585698,1.0319009155273438,7.81467421875,-4.005499377441406,0.2107718226454221,0.03410719759622507,0.09152986229924462,0.9993103996493221,0.033309369484772686,-0.004449983306866786,0.015792678867366357
4,200.0,0.97683427734375,7.905653881835937,-4.060566015625,0.22955742757146794,0.0191852986478766,0.1342970905351362,0.8847779146895417,8.08669380457418,-4.233704420278324,0.19117002509513759,-0.010075709177040107,0.11313416561103225,1.024718310546875,7.905653881835937,-4.060566015625,0.22955742757146794,0.0191852986478766,0.1342970905351362,1.0418984828899853,8.042932320180846,-4.114108279533761,0.21597563956289362,-0.03870254880016756,0.12508907235734149,0.97683427734375,7.905653881835937,-4.060566015625,0.22955742757146794,0.0191852986478766,0.1342970905351362,0.9992259773637374,0.035443245266712574,-0.004465794310693401,0.016470555777568306
4,210.0,1.024718310546875,8.078036401367187,-3.9719805541992184,0.23555283339892938,0.004130168458917879,0.14615467094944884,0.9127659938610084,8.084962323932782,-4.181359647062503,0.20004658675589596,-0.0072345336498485105,0.11973826667871558,1.0295067138671874,8.037334973144532,-4.005499377441406,0.23555283339892938,0.004130168458917879,0.1453552835057873,1.076632039596725,8.006355524205269,-4.068842652903089,0.22588090429275198,-0.05060709865469735,0.13612105593803372,1.024718310546875,8.078036401367187,-3.9719805541992184,0.23555283339892938,0.004130168458917879,0.14615467094944884,0.9991340531608368,0.03760728806769867,-0.004561285953286352,0.017205533093845825
4,220.0,1.0295067138671874,8.116343627929687,-4.108450048828125,0.2506079635878881,-0.033041347671343035,0.1453552835057873,0.9361141378622443,8.091238584732164,-4.166777727415628,0.2101588621222944,-0.012395896454147418,0.12486167004412993,1.0295067138671874,8.044517578125,-3.9719805541992184,0.2506079635878881,-0.033041347671343035,0.14615467094944884,1.111578556946699,7.964757696921181,-4.033832243449389,0.2380787304791963,-0.0670155167936864,0.14842791160115787,1.0295067138671874,8.116343627929687,-4.108450048828125,0.2506079635878881,-0.033041347671343035,0.1453552835057873,0.9990330902124175,0.03984928778790077,-0.004840865686503052,0.017930001194358433
4,230.0,1.2904746948242187,8.037334973144532,-3.9312791259765625,0.27898621783787225,-0.07794027575699869,0.17839663117713034,1.0069862492546393,8.080457862414638,-4.119678007127815,0.22392433326540997,-0.02550477231471767,0.13556866227073003,1.1540052001953125,8.044517578125,-3.9312791259765625,0.27898621783787225,-0.06355130177109124,0.17839663117713034,1.1461505353037498,7.914854045895138,-4.01238147713752,0.25325833226040023,-0.08678430790085458,0.16144774027778733,1.2904746948242187,8.037334973144532,-3.9312791259765625,0.27898621783787225,-0.07794027575699869,0.17839663117713034,0.9989162278138376,0.042231749688026295,-0.005380249907608308,0.018812284268341146
4,240.0,1.3575123413085937,8.044517578125,-3.768473413085937,0.2933751918237797,-0.06355130177109124,0.1994471671935505,1.0770914676654302,8.073269805556711,-4.04943708831944,0.23781450497708392,-0.03311407820599239,0.14834436325529413,1.1947066284179686,8.037334973144532,-3.9312791259765625,0.2933751918237797,-0.07794027575699869,0.1994471671935505,1.1797541221572276,7.854454079246692,-4.007444477281696,0.27226716756887853,-0.10841699358115425,0.1746963305681792,1.3575123413085937,8.044517578125,-3.768473413085937,0.2933751918237797,-0.06355130177109124,0.1994471671935505,0.998787769614201,0.04468238367328261,-0.005858586902378594,0.01980284873119407
4,250.0,1.1540052001953125,7.843404638671874,-3.909731311035156,0.29577335415476425,-0.08326952538140886,0.2180995408789861,1.0924742141714068,8.027296772179744,-4.0214959328625834,0.24940627481262,-0.043145167641075684,0.16229539878003252,1.2904746948242187,7.953537915039062,-3.9312791259765625,0.29577335415476425,-0.08326952538140886,0.2180995408789861,1.212511765754321,7.782773007945708,-4.0211243909696615,0.29614036166253827,-0.13012132167420315,0.1878333931787109,1.1540052001953125,7.843404638671874,-3.909731311035156,0.29577335415476425,-0.08326952538140886,0.2180995408789861,0.9986489904130711,0.04714845289343732,-0.0064193087653289715,0.02088084796373021
4,260.0,1.1947066284179686,7.953537915039062,-4.074931225585937,0.33720826998455333,-0.1502848394083667,0.2456784076853087,1.1129206970207193,8.012545000751608,-4.032182991407255,0.2669666738470067,-0.0645731019945339,0.17897200056108775,1.2497732666015624,7.843404638671874,-4.070142822265625,0.33720826998455333,-0.1502848394083667,0.22049770320997067,1.2453495822498732,7.700459245758126,-4.054197536988057,0.3260714681156861,-0.149774385728181,0.2007572737675224,1.1947066284179686,7.953537915039062,-4.074931225585937,0.33720826998455333,-0.1502848394083667,0.2456784076853087,0.9984869385350977,0.0498263338197435,-0.007319806969184662,0.022081450559815106
4,270.0,1.438915197753906,7.556100439453124,-4.077325427246094,0.3539954063014453,-0.18119448722994566,0.25047473234727785,1.1781195971673566,7.921256088491912,-4.041211478575023,0.2843724203378944,-0.08789737904161625,0.1932725469183258,1.2497732666015624,7.556100439453124,-4.074931225585937,0.34919908163947616,-0.18119448722994566,0.22049770320997067,1.2794839014341934,7.609549034348589,-4.1064009724256305,0.36334412724833076,-0.16496937520399382,0.21368978418626988,1.438915197753906,7.556100439453124,-4.077325427246094,0.3539954063014453,-0.18119448722994566,0.25047473234727785,0.9983091840118651,0.05258485244709168,-0.008411054218564844,0.023299368609771217
4,280.0,1.2497732666015624,7.45075556640625,-4.070142822265625,0.34919908163947616,-0.1930520676442583,0.22049770320997067,1.1924503310541978,7.82715598407478,-4.046997747313144,0.29733775259821077,-0.10892831676214466,0.19871757817665478,1.369483349609375,7.45075556640625,-4.077325427246094,0.3539954063014453,-0.1930520676442583,0.23608575836137038,1.316263901507913,7.513132605422576,-4.176978845319849,0.4092350760356943,-0.17320856858455505,0.2272024807270362,1.2497732666015624,7.45075556640625,-4.070142822265625,0.34919908163947616,-0.1930520676442583,0.22049770320997067,0.9981256670478945,0.05532416718977799,-0.009534072186874779,0.024361666045004306
4,290.0,1.369483349609375,7.225700610351562,-4.187458703613281,0.3762450234833578,-0.27898621783787225,0.1871898930574071,1.2278569347652333,7.706864909330137,-4.075089938573171,0.3131192067752402,-0.1429398969772902,0.19641204115280528,1.438915197753906,7.414842541503906,-4.187458703613281,0.3762450234833578,-0.1930520676442583,0.23608575836137038,1.3573167260531607,7.414497755575109,-4.264730064803652,0.4648067044691876,-0.17214449110873614,0.2420865066688666,1.369483349609375,7.225700610351562,-4.187458703613281,0.3762450234833578,-0.27898621783787225,0.1871898930574071,0.9979239315837448,0.05820629330287617,-0.01109361487599679,0.025234617123391947
4,300.0,1.5562310791015623,7.414842541503906,-4.618415002441406,0.4092863711547008,-0.25167381351277013,0.23608575836137038,1.2935317636324992,7.648460435764892,-4.183754951346819,0.3323526396511324,-0.16468668028438618,0.20434678459451833,1.5562310791015623,7.225700610351562,-4.618415002441406,0.4092863711547008,-0.1930520676442583,0.23608575836137038,1.4045140112161136,7.316308258258742,-4.367953124334654,0.5305789471262091,-0.15987246094051907,0.25907590088958915,1.5562310791015623,7.414842541503906,-4.618415002441406,0.4092863711547008,-0.25167381351277013,0.23608575836137038,0.9976958978988099,0.06124256862916223,-0.012545858546522138,0.026359903962655827
4,310.0,1.5897499023437498,6.9910688476562495,-4.881777185058594,0.5118744264245966,-0.1729341503121099,0.25673660065595977,1.3527753913747493,7.516982118143163,-4.323359398089174,0.36825699700582526,-0.16633617428993092,0.21482474780680663,1.5897499023437498,6.9910688476562495,-4.881777185058594,0.5118744264245966,-0.1729341503121099,0.25673660065595977,1.4601697309571093,7.220428084845255,-4.48524752472263,0.6062156701450349,-0.13520618163491577,0.2786320503601747,1.5897499023437498,6.9910688476562495,-4.881777185058594,0.5118744264245966,-0.1729341503121099,0.25673660065595977,0.997424787308279,0.06477439845162244,-0.013614112169646999,0.027617511077164786
4,320.0,1.7764976318359373,6.471527087402343,-5.013458276367187,0.7090566625277727,-0.13935987767832586,0.31495865280264085,1.437519839466987,7.307891111995,-4.461379173744777,0.43641693011021476,-0.1609409149676099,0.2348515288059735,1.7286135986328124,6.969521032714844,-4.936843823242187,0.7090566625277727,-0.13935987767832586,0.31495865280264085,1.5276422612456229,7.127588575857283,-4.617144232114117,0.6904363137371873,-0.09770857656914354,0.30094084185010866,1.7764976318359373,6.471527087402343,-5.013458276367187,0.7090566625277727,-0.13935987767832586,0.31495865280264085,0.9970646571173766,0.06927022893621329,-0.014546096199064096,0.02919102594806309
4,330.0,1.93451494140625,6.624755993652343,-4.936843823242187,0.8097794804291248,0.026779479362661087,0.4134165396136187,1.5369188598548398,7.171264088326469,-4.556472103644259,0.5110894401739968,-0.12339683610155572,0.27056453096750255,1.7764976318359373,6.969521032714844,-5.013458276367187,0.8097794804291248,0.026779479362661087,0.34720061303032235,1.6119981538888917,7.035874169791797,-4.767357468341458,0.7813078547740953,-0.04744146884400106,0.326103305415724,1.93451494140625,6.624755993652343,-4.936843823242187,0.8097794804291248,0.026779479362661087,0.4134165396136187,0.9966409971822391,0.07423042307389358,-0.014683064642185495,0.03132051466014454
4,340.0,1.7286135986328124,6.969521032714844,-5.121197351074218,0.8688009200194674,0.08033843808798327,0.4212771828096237,1.5752578076104344,7.130915477204144,-4.669417153130251,0.5826317361430909,-0.08264978126364793,0.3007070613359268,1.7764976318359373,6.926425402832031,-5.0948611328124995,0.8688009200194674,0.08033843808798327,0.34720061303032235,1.7204821614394887,6.939360996600944,-4.942792462784949,0.8767204597776372,0.015450976128808223,0.3544656416846736,1.7286135986328124,6.969521032714844,-5.121197351074218,0.8688009200194674,0.08033843808798327,0.4212771828096237,0.9961672698792724,0.07948109425073069,-0.014509130568906481,0.03351135938928763
4,350.0,1.915361328125,7.041347082519531,-5.0948611328124995,0.9121010732178001,0.24607810140713945,0.34720061303032235,1.6432785117133477,7.113001798267222,-4.754505949066701,0.6485256035580328,-0.016904204729490446,0.3100057716748059,1.7286135986328124,6.969521032714844,-5.121197351074218,0.9121010732178001,0.24607810140713945,0.34720061303032235,1.8623185721556113,6.828986725157905,-5.152654200198467,0.974600034337866,0.09123701845253639,0.38686844173160834,1.915361328125,7.041347082519531,-5.0948611328124995,0.9121010732178001,0.24607810140713945,0.34720061303032235,0.9956673959169927,0.08491717818212485,-0.013490968891263016,0.035404848761643494
4,360.0,1.6903063720703124,6.926425402832031,-5.1882349975585935,1.007494641494742,0.28018529900336453,0.3088300157345692,1.6526840837847407,7.075686519180184,-4.841251758765079,0.7203194111453747,0.04251369601708055,0.3097706204867586,1.6903063720703124,6.969521032714844,-5.1882349975585935,1.007494641494742,0.24607810140713945,0.3088300157345692,2.0476394543930185,6.695035355232391,-5.407214018942218,1.0727275970846986,0.18104267938292803,0.42446054633115937,1.6903063720703124,6.926425402832031,-5.1882349975585935,1.007494641494742,0.28018529900336453,0.3088300157345692,0.995099091976072,0.09082587119598026,-0.012243902719143699,0.03712876399898651
4,370.0,1.5322890624999999,7.098807922363281,-5.473144995117187,1.113280246539284,0.2476768762944625,0.29723889780147705,1.6286050795277927,7.080310799816804,-4.967630406035501,0.7989115782241565,0.08354633207255695,0.3072642759497023,1.6903063720703124,6.926425402832031,-5.403713146972656,1.113280246539284,0.24607810140713945,0.3088300157345692,2.285627045970686,6.529350705895852,-5.716376507758005,1.168447251927849,0.2870134603726719,0.46806558204296944,1.5322890624999999,7.098807922363281,-5.473144995117187,1.113280246539284,0.2476768762944625,0.29723889780147705,0.9944401791390944,0.09726726803914625,-0.011107114647881472,0.038787120107137474
4,380.0,1.3383587280273437,6.8402341430664055,-5.403713146972656,1.2526401242176097,0.07207810117014751,0.3021684537040565,1.570555809227703,7.0322954684667245,-5.054846954222932,0.8896572874228472,0.08125268589207507,0.30624511150057315,1.5562310791015623,6.8402341430664055,-5.408501550292969,1.2526401242176097,0.07207810117014751,0.3088300157345692,2.5815744135188363,6.326960196704389,-6.088143287263119,1.2585519130976721,0.4117869996753629,0.5174473091298439,1.3383587280273437,6.8402341430664055,-5.403713146972656,1.2526401242176097,0.07207810117014751,0.3021684537040565,0.993652746084702,0.10443204019449176,-0.01079879831463642,0.0403925133422829
4,390.0,1.7693150268554687,6.440402465820312,-5.408501550292969,1.3164578884699214,0.017053598798112534,0.38810260389767043,1.6103076527532563,6.913916867937442,-5.1255778734369395,0.9750174076322622,0.06841286847328257,0.32261660997999264,1.5562310791015623,6.440402465820312,-5.473144995117187,1.3164578884699214,0.017053598798112534,0.35332925009839405,2.933202348080134,6.08727165815923,-6.5265836142583815,1.3393933536059937,0.5570045230182497,0.5707516399405967,1.7693150268554687,6.440402465820312,-5.408501550292969,1.3164578884699214,0.017053598798112534,0.38810260389767043,0.9927546793737178,0.11190179257197361,-0.010856303110581032,0.042406085454063255
4,400.0,1.5562310791015623,5.430049365234375,-5.616797094726562,1.4546186849827552,-0.14935222072409493,0.35332925009839405,1.5994923380229176,6.61714336739683,-5.2238217176948645,1.0709376631023608,0.024859850633807072,0.32875913800367296,1.7693150268554687,5.430049365234375,-5.616797094726562,1.4546186849827552,0.017053598798112534,0.38330627923570126,3.32737221045506,5.813857288942423,-7.028729567440335,1.407093285893597,0.7210810845366277,0.6241786903781515,1.5562310791015623,5.430049365234375,-5.616797094726562,1.4546186849827552,-0.14935222072409493,0.35332925009839405,0.9917119179458359,0.12008530627181743,-0.011693659616418817,0.04416162753534633
4,410.0,2.2266075439453124,4.75009609375,-5.951985327148437,1.5626692211176711,-0.12430474748936714,0.38330627923570126,1.7249153792073966,6.243733912667464,-5.369454439585579,1.1692839747054231,-0.004973068990827771,0.3396685662500787,2.2266075439453124,5.430049365234375,-5.951985327148437,1.5626692211176711,0.017053598798112534,0.38810260389767043,3.737538349290857,5.511827505578011,-7.5809366313040805,1.457822834812841,0.8966796633566589,0.6717262829463547,2.2266075439453124,4.75009609375,-5.951985327148437,1.5626692211176711,-0.12430474748936714,0.38330627923570126,0.9905252463480886,0.12875510284643144,-0.012516854646036201,0.04609976342491678
4,420.0,3.0430303100585934,4.800374328613281,-6.564900952148437,1.5678652395014712,0.029843797896696934,0.47310413540701257,1.9885383653776363,5.955061995856628,-5.608543742098151,1.2490002276646328,0.0019903043866771695,0.36635568008146546,3.0430303100585934,5.430049365234375,-6.564900952148437,1.5626692211176711,0.029843797896696934,0.47310413540701257,4.122273326085872,5.183896708193134,-8.155882608382017,1.4881851725311979,1.0683802831232743,0.7049024901549045,3.0430303100585934,4.800374328613281,-6.564900952148437,1.5678652395014712,0.029843797896696934,0.47310413540701257,0.9892462353705848,0.1373634790008994,-0.012719704666093368,0.04859392508433983
4,430.0,15.952565661621092,6.373364819335937,-9.473855969238281,1.6648575826657361,2.954802454254217,2.562303219416408,4.781343824626328,6.038722560552491,-6.381606187526177,1.3321716986648535,0.5925527343601851,0.805545187948454,4.819527941894531,4.800374328613281,-9.473855969238281,1.5678652395014712,2.915632469514802,0.8001868311051865,4.433786188911782,4.8291656812037225,-8.712311648454097,1.4955916232994486,1.2128592292123663,0.7139093795180159,2.2266075439453124,6.373364819335937,-6.60799658203125,1.6648575826657361,0.28018529900336453,0.34720061303032235,0.9873646608552297,0.14518749068554535,-0.0003079435144461119,0.06349428488820058
4,440.0,5.276820458984375,6.380547424316406,-10.862492932128905,1.3284487001248444,3.942312409657421,1.235453294178887,4.880439151497937,6.107087533305274,-7.277783536446723,1.3314270989568517,1.2625046694196325,0.8915268091945406,4.819527941894531,4.800374328613281,-10.319009155273436,1.58292036969043,2.915632469514802,0.8001868311051865,4.6446855995865235,4.448231182833773,-9.200934467503885,1.4783799026189322,1.3057976910842675,0.6921719449087895,3.0430303100585934,4.75009609375,-6.60799658203125,1.3284487001248444,0.3883690663788909,0.3088300157345692,0.9856534655237521,0.15132532141008057,0.01822923327723698,0.0724954347202455
4,450.0,4.819527941894531,3.356670727539062,-10.319009155273436,1.58292036969043,2.915632469514802,0.8001868311051865,4.868256909577256,5.557004172152032,-7.886028660212066,1.3817257531035676,1.5931302294386667,0.8732588135766699,4.819527941894531,3.356670727539062,-10.862492932128905,1.58292036969043,2.915632469514802,0.8001868311051865,4.769027585489377,4.050503040329909,-9.57495796475057,1.4355087392377142,1.3338292479695,0.6407970761684229,4.819527941894531,3.356670727539062,-10.319009155273436,1.58292036969043,0.5016156208976069,0.8001868311051865,0.9836335686155281,0.15894855295408133,0.03203496900640854,0.07857557487694959
4,460.0,2.0781670410156248,3.143586779785156,-12.373234179687499,1.6152955611587216,1.3101960201612395,0.03530627876171735,4.31023893586493,5.074320693678657,-8.783469764107153,1.4284397147145984,1.5365433875831813,0.7056683066136795,4.819527941894531,3.143586779785156,-10.862492932128905,1.5718621767197787,1.3101960201612395,0.7051929565500753,4.849953213342228,3.654264786860827,-9.798271667259565,1.3663746733426247,1.3012607255857556,0.5675160703317236,4.867411975097656,3.143586779785156,-6.60799658203125,1.2526401242176097,1.3101960201612395,0.03530627876171735,0.9819113438547236,0.1673405158771632,0.03893492665594692,0.0795696929846513
4,470.0,1.5035586425781249,1.9967641845703124,-12.808978881835937,1.5718621767197787,0.2304900462557397,0.2829831550561799,3.7489028772075685,4.458809391856988,-9.588571587652911,1.4571242071156347,1.275332719317693,0.6211312763021797,4.819527941894531,2.8371289672851563,-10.352527978515624,1.5718621767197787,0.6428407359444763,0.2829831550561799,4.930500494063959,3.2789236130447716,-9.850579342394326,1.2714755517002323,1.2255004623206598,0.4817280122277017,4.927267016601562,1.9967641845703124,-6.60799658203125,1.2526401242176097,0.2304900462557397,0.2829831550561799,0.9802315302895432,0.1759921968634121,0.04039393508824804,0.08087783180511504
4,480.0,4.867411975097656,2.8371289672851563,-10.352527978515624,1.501782544158785,0.3883690663788909,0.7051929565500753,3.972604696785586,4.134473306942622,-9.741362865825455,1.466055874524265,1.0979399887299326,0.6379436123517588,4.867411975097656,2.6910826660156246,-10.352527978515624,1.501782544158785,0.6428407359444763,0.2230290967815655,5.035035196953138,2.93813706888713,-9.73206282553399,1.1535010774218308,1.126662112388529,0.3912628751729177,4.867411975097656,2.8371289672851563,-10.352527978515624,1.501782544158785,0.3883690663788909,0.7051929565500753,0.9783630211711337,0.18417979719936461,0.04179506307962135,0.08447942832822289
4,490.0,5.899312890625,2.6910826660156246,-9.823409411621093,1.0846355298080792,0.6428407359444763,0.2230290967815655,4.3579463355534696,3.845795178757223,-9.757772174984582,1.3897718055810278,1.0069201381728414,0.5549607092377202,4.927267016601562,1.9967641845703124,-9.823409411621093,1.0846355298080792,0.5799555903764364,0.2230290967815655,5.168076860359837,2.638778196971042,-9.462812610722638,1.01791313675662,1.0200245827526895,0.30270094652732543,5.899312890625,2.6910826660156246,-9.823409411621093,1.0846355298080792,0.6428407359444763,0.2230290967815655,0.9769778270384196,0.1900448654294011,0.04461030558306992,0.08606506396322336
4,500.0,5.623979699707031,1.8076222534179687,-9.540893615722656,0.6713522214350708,0.7382343042214183,-0.21610107226983227,4.611153008384182,3.438160593689372,-9.714396463132196,1.2460878887518365,0.9531829713825569,0.40074835293620975,5.130774157714844,2.2960393920898436,-9.540893615722656,0.6713522214350708,0.6284517619585689,-0.09752526812670606,5.325170394432838,2.383559129369506,-9.075529576571014,0.8724428034476224,0.9145198447451245,0.22249609373312287,5.623979699707031,1.8076222534179687,-9.540893615722656,0.6713522214350708,0.7382343042214183,-0.21610107226983227,0.976121894279255,0.1937209097838976,0.04809732866160698,0.08570241301617507
4,510.0,4.927267016601562,1.9129671264648436,-8.688557824707031,0.5824869839480312,0.5799555903764364,-0.09752526812670606,4.674375810027659,3.1331219002444666,-9.509228735447163,1.1133677077910755,0.8785374951813328,0.3010936287236266,5.382165332031249,1.9129671264648436,-8.688557824707031,0.5824869839480312,0.6284517619585689,-0.10072281790135215,5.502433395103817,2.172715204846901,-8.608921122395666,0.7255425862083357,0.8145797921692495,0.15620282194422502,4.927267016601562,1.9129671264648436,-8.688557824707031,0.5824869839480312,0.5799555903764364,-0.09752526812670606,0.975308266941111,0.1970875920846709,0.050704260597593184,0.08578661573837917
4,520.0,5.130774157714844,2.2960393920898436,-7.503428002929687,0.3890352225819422,0.6284517619585689,-0.10072281790135215,4.765655479565096,2.965705398613542,-9.108068588943668,0.9685012107492489,0.8285203485367801,0.22073033939863085,5.382165332031249,1.8698714965820311,-7.503428002929687,0.3890352225819422,0.5799555903764364,-0.10072281790135215,5.69704270419841,2.0039052837842948,-8.10457203276144,0.5848095578331788,0.7219072855159964,0.10694725914051284,5.130774157714844,2.2960393920898436,-7.503428002929687,0.3890352225819422,0.6284517619585689,-0.10072281790135215,0.9746627054306781,0.19946621672560158,0.05344310834773093,0.08596320839672841
4,530.0,5.382165332031249,1.8698714965820311,-6.60799658203125,0.2252940278719398,0.5591715168412368,-0.16680551324403822,4.888957450058327,2.74653861820724,-8.608054187561185,0.8198597741737872,0.7746505821976716,0.14322316887009703,5.382165332031249,1.8698714965820311,-6.60799658203125,0.2252940278719398,0.5591715168412368,-0.09752526812670606,5.903462364478965,1.8731239792664942,-7.603626380623844,0.45619836273206066,0.6363543987325203,0.07506842336432706,5.382165332031249,1.8698714965820311,-6.60799658203125,0.2252940278719398,0.5591715168412368,-0.16680551324403822,0.9742323333740831,0.20099274368982137,0.05576298390003675,0.08581239548626557
4,540.0,5.961562133789062,1.7405846069335937,-6.026205578613281,0.1814609497111662,0.5016156208976069,-0.022649310903743208,5.103478386804474,2.5453478159525114,-8.091684465771605,0.6921800092812631,0.7200435899376587,0.11004867291532898,5.961562133789062,1.7884686401367187,-6.026205578613281,0.1814609497111662,0.5591715168412368,-0.022649310903743208,6.111352146971317,1.776421928839379,-7.142243320618503,0.3437544647519937,0.5564900093418222,0.05854661844673775,5.961562133789062,1.7405846069335937,-6.026205578613281,0.1814609497111662,0.5016156208976069,-0.022649310903743208,0.9738092104482584,0.2023044579307215,0.057576050581965105,0.08633380767045766
4,550.0,7.4794859863281244,1.7884686401367187,-5.537788439941406,0.12497090369241841,0.5443828491334985,0.21636753475105278,5.578679906709205,2.3939719807893534,-7.580905260605566,0.5787381881634942,0.6849114417768267,0.13131244528247374,6.675034228515624,1.7405846069335937,-5.537788439941406,0.12497090369241841,0.5491791737954677,0.1337641655726952,6.306977014445259,1.7103683194979253,-6.747789035818484,0.2495817425790354,0.48011100259209183,0.05366449503361872,7.4794859863281244,1.7884686401367187,-5.537788439941406,0.12497090369241841,0.5443828491334985,0.21636753475105278,0.9733444973617381,0.20329418482213538,0.059256900804813106,0.08809417449603131
4,560.0,7.323862878417969,1.7190367919921874,-5.291185668945312,0.05542419609386574,0.688272588992573,0.24354670783554463,5.927716501050958,2.2589849430299203,-7.122961342273515,0.47407538974956853,0.6855836712199761,0.15375929779308795,6.675034228515624,1.7190367919921874,-5.537788439941406,0.09899081177341885,0.5443828491334985,0.1337641655726952,6.477851603248281,1.6717989926840255,-6.4367647403146595,0.1740785444185541,0.4048940900095368,0.056186063638223524,7.323862878417969,1.7190367919921874,-5.291185668945312,0.05542419609386574,0.688272588992573,0.24354670783554463,0.9728886614295299,0.20388189064610948,0.06157578685500363,0.09015680563114886
4,570.0,6.675034228515624,1.4125789794921875,-5.2816088623046875,0.06448392045536303,0.5491791737954677,0.1337641655726952,6.077180046543892,2.0897037503223737,-6.75469084627975,0.39215709589072745,0.6583027717350745,0.1497602713490094,7.108384729003906,1.6831237670898436,-5.537788439941406,0.09899081177341885,0.5443828491334985,0.1337641655726952,6.617378363831024,1.6577170631725677,-6.21419676148695,0.11628762669390284,0.329423556289901,0.06264943428395355,6.675034228515624,1.4125789794921875,-5.2816088623046875,0.06448392045536303,0.5491791737954677,0.1337641655726952,0.9725058953615248,0.2045489492843016,0.0633403193827869,0.09154242062701784
4,580.0,6.399701037597656,1.5514426757812498,-5.779602807617187,0.09899081177341885,0.2346202147146576,0.011058192970651096,6.141684244754645,1.9820515354141488,-6.559673238547238,0.3335238390672658,0.5735662603309911,0.12201985567333774,7.108384729003906,1.6807295654296874,-5.779602807617187,0.06448392045536303,0.2346202147146576,0.1337641655726952,6.72495163799952,1.6647896630155268,-6.074504908488115,0.07427310088763905,0.2540218479814465,0.07080000595185577,6.399701037597656,1.5514426757812498,-5.779602807617187,0.09899081177341885,0.2346202147146576,0.011058192970651096,0.9722274885922116,0.2055381780390372,0.06375416387350186,0.0919955128409241
4,590.0,7.108384729003906,1.6831237670898436,-6.1842228881835934,0.11337978575932631,0.0860673814342242,0.06594946410207582,6.335024341604497,1.9222659817492878,-6.48458316847451,0.2894950284056779,0.47606648455163775,0.11080577735908537,6.68461103515625,1.6807295654296874,-6.1842228881835934,0.06448392045536303,0.16200918858206909,0.1337641655726952,6.802424680446007,1.6886376189952577,-6.004313647140455,0.04563124556729808,0.18048664961724384,0.07906705678394334,7.108384729003906,1.6831237670898436,-6.1842228881835934,0.11337978575932631,0.0860673814342242,0.06594946410207582,0.97195736467359,0.20667185255442058,0.06338786591071152,0.09256135842661081
4,600.0,7.407659936523437,1.6807295654296874,-6.53138212890625,0.042234303273450575,0.16200918858206909,0.19505053625341212,6.549551460588286,1.8739586984853678,-6.493942960560858,0.24004288337923246,0.413255025357724,0.12765472913795073,6.68461103515625,1.6831237670898436,-6.205770703124999,0.042234303273450575,0.0860673814342242,0.1726676878308894,6.852219881886887,1.723825466450337,-5.986861123196267,0.028026075628457225,0.11106826491618918,0.08598682014195615,7.407659936523437,1.6807295654296874,-6.53138212890625,0.042234303273450575,0.16200918858206909,0.19505053625341212,0.971675102070753,0.20746367604036134,0.06322346572342567,0.0938568725322263
4,610.0,6.68461103515625,1.8555062866210936,-6.291961962890625,-0.003064318534035846,0.053825421206542684,0.1775972437334688,6.5765633755018795,1.870268216112513,-6.4535467610268125,0.19142144299657882,0.3413691045274878,0.13764323205705437,6.756437084960937,1.8555062866210936,-6.205770703124999,0.029843797896696934,0.053825421206542684,0.1726676878308894,6.878408606768048,1.7644061964094813,-6.006286006827994,0.0194286349635767,0.04788191487191686,0.09026985761958044,6.68461103515625,1.8555062866210936,-6.291961962890625,0.0767411945915064,0.053825421206542684,0.1775972437334688,0.9714693324617375,0.20812193025291684,0.06256433088751762,0.09496474469371853
4,620.0,6.469132885742187,1.85790048828125,-6.205770703124999,0.0014655436467127959,-0.1322986219259824,0.1726676878308894,6.555077277549942,1.8677946705462605,-6.4039915494464505,0.15343026312660563,0.24663555923679378,0.14464812321182138,6.756437084960937,1.85790048828125,-6.291961962890625,0.029843797896696934,-0.1322986219259824,0.1726676878308894,6.886974124000298,1.8044478243142617,-6.049867414230734,0.01798268981699324,-0.007078556260311542,0.09123897123104595,6.469132885742187,1.85790048828125,-6.205770703124999,0.0014655436467127959,-0.1322986219259824,0.1726676878308894,0.9713142452563839,0.20889731604922376,0.06101605776629476,0.09585191184380337
4,630.0,6.756437084960937,2.0781670410156248,-6.100425830078125,0.029843797896696934,-0.16414088843183314,0.15215007677691025,6.595349239032141,1.9098691446401335,-6.343278405572786,0.1287129700806239,0.1644802697030684,0.14614851392483916,6.756437084960937,2.059013427734375,-6.291961962890625,0.029843797896696934,-0.16414088843183314,0.15215007677691025,6.883626830338006,1.8385357323434413,-6.10783472723956,0.021788969349993796,-0.05211374971082076,0.08905763560287755,6.756437084960937,2.0781670410156248,-6.100425830078125,0.029843797896696934,-0.16414088843183314,0.15215007677691025,0.9711465178670295,0.20981384605830233,0.05934335729821067,0.0965968777007994
4,640.0,6.919242797851562,2.0781670410156248,-6.4475850708007805,0.07407656977930133,-0.19025421159144296,0.05662327725935802,6.660127950796026,1.943528723915232,-6.364139738618386,0.1177856900203594,0.09353337344416612,0.12824346659174293,6.789955908203124,2.059013427734375,-6.4475850708007805,0.07407656977930133,-0.16414088843183314,0.05662327725935802,6.872070707593,1.8623982891483781,-6.172222362092184,0.028886873832320872,-0.0862974555532017,0.08462641909280677,6.919242797851562,2.0781670410156248,-6.4475850708007805,0.07407656977930133,-0.19025421159144296,0.05662327725935802,0.9709814781669216,0.21093183612582392,0.05766788205507158,0.09683565946824986
4,650.0,6.789955908203124,2.059013427734375,-6.5601125488281244,0.1244379787299774,-0.21037212892359133,-0.011990811654922875,6.686093542277446,1.9666256646790607,-6.403334300660334,0.119116147762283,0.032752272970614636,0.10019661094240978,6.8210805297851556,2.059013427734375,-6.4475850708007805,0.0767411945915064,-0.16414088843183314,0.031176110302799476,6.854433941165943,1.873520376447326,-6.2365057394611165,0.03745897004220154,-0.109762894248111,0.0792161493951959,6.789955908203124,2.059013427734375,-6.5601125488281244,0.1244379787299774,-0.21037212892359133,-0.011990811654922875,0.9707957790933898,0.21229253281992522,0.055999455711831,0.09670313729832133
4,660.0,6.8785413696289055,1.9632453613281249,-6.48589229736328,0.12310566632387486,-0.1500183769271462,-0.008127105677225504,6.724583107747738,1.9659496040088738,-6.419845900000924,0.11991405147460138,-0.00380185700893753,0.07853186761848273,6.8210805297851556,1.9632453613281249,-6.48589229736328,0.0767411945915064,-0.1500183769271462,0.031176110302799476,6.832306520314447,1.8713631229814482,-6.2962133665287086,0.046135706227959074,-0.12366642064782885,0.07392076356521057,6.8785413696289055,1.9632453613281249,-6.48589229736328,0.12310566632387486,-0.1500183769271462,-0.008127105677225504,0.9705921363463592,0.21360413547705637,0.05460669321147106,0.0966555079973108
4,670.0,6.8210805297851556,1.8507178833007811,-6.275202551269531,0.0767411945915064,-0.11870903538373646,0.031176110302799476,6.743882592155222,1.9429032598672553,-6.3909172302546455,0.11127948009798239,-0.026783292683897317,0.06906071615534609,6.797138513183594,1.8507178833007811,-6.48589229736328,0.0767411945915064,-0.11870903538373646,0.031176110302799476,6.807198798761405,1.85700927338186,-6.349214948090334,0.05420268707388037,-0.12993570314965106,0.06922856737383012,6.8210805297851556,1.8507178833007811,-6.275202551269531,0.0767411945915064,-0.11870903538373646,0.031176110302799476,0.9704102955735266,0.21467345867201684,0.05329083000966429,0.09684653748883153
4,680.0,6.746860278320312,1.7645266235351562,-6.495469104003906,0.041301684589178794,-0.10258805526989571,0.07341041357625006,6.7444781293882405,1.9072279326008357,-6.411827605004498,0.09728392099622167,-0.041944245201097005,0.06993065563952688,6.797138513183594,1.8507178833007811,-6.457161877441406,0.04729709041664023,-0.10258805526989571,0.07341041357625006,6.780676746472676,1.832432621941357,-6.394961165163909,0.06152751740561035,-0.13087051892128568,0.0649803925170075,6.746860278320312,1.7645266235351562,-6.495469104003906,0.041301684589178794,-0.10258805526989571,0.07341041357625006,0.9702375022806886,0.2155796496708344,0.051995647364636716,0.09726796220268814
4,690.0,6.797138513183594,1.7381904052734374,-6.457161877441406,0.032108728987071254,-0.05715620222179904,0.0848683002687319,6.755010206147311,1.873420427135356,-6.42089445949188,0.08424888259439159,-0.04498663660523741,0.07291818456536789,6.746860278320312,1.8028338500976562,-6.433219860839843,0.04729709041664023,-0.05715620222179904,0.08073813180981403,6.75437634057513,1.7997215681044019,-6.433572180078703,0.06823773457621155,-0.12874166117938338,0.060645934528555163,6.797138513183594,1.7381904052734374,-6.457161877441406,0.032108728987071254,-0.05715620222179904,0.0848683002687319,0.9700564162902725,0.21641551825315292,0.05089862786766017,0.0977967399992556
4,700.0,6.68461103515625,1.8531120849609375,-6.433219860839843,0.04729709041664023,-0.045431853048096674,0.10631853000698283,6.7409303719491,1.8693587587004723,-6.423359539761473,0.07685852415884133,-0.04507567989380927,0.07959825365369089,6.68461103515625,1.7645266235351562,-6.457161877441406,0.04729709041664023,-0.05715620222179904,0.08073813180981403,6.729949022131603,1.7606534001572343,-6.465519761430696,0.07438169149319376,-0.12547090041029824,0.055672145357562555,6.68461103515625,1.8531120849609375,-6.433219860839843,0.04729709041664023,-0.045431853048096674,0.10631853000698283,0.9698399552742496,0.21733718999391044,0.049853812526356615,0.09843578808431024
4,710.0,6.6343328002929685,1.8028338500976562,-6.404489440917969,0.07833996947882946,-0.05395865244715294,0.08073813180981403,6.719610857617874,1.856053776979909,-6.419585519992773,0.07715481322283896,-0.046852274404478006,0.07982622928491552,6.6343328002929685,1.7381904052734374,-6.457161877441406,0.07833996947882946,-0.05715620222179904,0.08073813180981403,6.7089702138141885,1.716885011603522,-6.491435147316622,0.07976552600093997,-0.12238693143948792,0.049741698368902375,6.6343328002929685,1.8028338500976562,-6.404489440917969,0.07833996947882946,-0.05395865244715294,0.08073813180981403,0.9696025539788714,0.21840484387457523,0.048808987532381304,0.09893378707921839
4,720.0,6.6343328002929685,1.7022773803710936,-6.5960255737304685,0.10485298636027003,-0.08127105677225505,0.028911179212425156,6.702555246152894,1.825298497658146,-6.454873530740312,0.08269444785032518,-0.053736030878033414,0.06964321927041746,6.6343328002929685,1.7022773803710936,-6.572083557128906,0.10485298636027003,-0.08127105677225505,0.04316692195772235,6.692705905337075,1.6704611474788258,-6.511784403655705,0.08399897634593369,-0.12012156061485339,0.04286401302773464,6.6343328002929685,1.7022773803710936,-6.5960255737304685,0.10485298636027003,-0.08127105677225505,0.028911179212425156,0.9693658845608544,0.21960143945011865,0.04770144334019323,0.09914414730205078
4,730.0,6.478709692382812,1.5945383056640625,-6.643909606933593,0.12164012267716207,-0.13043338455743883,0.029843797896696934,6.6577861353988785,1.7791464592593293,-6.492680745978969,0.09048358281569255,-0.0690755016139145,0.061683334995673356,6.6343328002929685,1.5945383056640625,-6.572083557128906,0.10485298636027003,-0.11857580414312621,0.03610566620537888,6.681778339419278,1.6240066270397082,-6.5269245189724625,0.08666998562370457,-0.11871129251327767,0.03526973482201621,6.734889270019531,1.5945383056640625,-6.643909606933593,0.12164012267716207,-0.13043338455743883,0.029843797896696934,0.9691182009990027,0.2209062163134992,0.04636541261269273,0.0993005770364147
4,740.0,6.789955908203124,1.47482822265625,-6.572083557128906,0.1267029098203517,-0.1421577337311412,0.04316692195772235,6.684220089959728,1.7182828119387137,-6.508561308208956,0.09772744821662438,-0.08369194803735985,0.05798005238808316,6.643909606933593,1.5131354492187499,-6.572083557128906,0.10485298636027003,-0.11857580414312621,0.029843797896696934,6.675933550472613,1.5804003172743686,-6.5376075371833275,0.08753727549521285,-0.1178681217803313,0.02724308387803081,6.789955908203124,1.47482822265625,-6.572083557128906,0.1267029098203517,-0.1421577337311412,0.04316692195772235,0.9688643683455671,0.2222158467870182,0.04493662763029601,0.09951207305794636
4,750.0,6.734889270019531,1.3623007446289062,-6.45476767578125,0.10285451775111622,-0.11857580414312621,0.03610566620537888,6.69435392597169,1.6470863984767523,-6.497802581723415,0.09875286212352276,-0.09066871925851314,0.053605175151542304,6.658274816894531,1.47482822265625,-6.572083557128906,0.10285451775111622,-0.11950842282739799,0.029843797896696934,6.674282088615181,1.5421650657062387,-6.5452144052370125,0.08665198329841609,-0.1172694114685886,0.019082972658331313,6.734889270019531,1.3623007446289062,-6.45476767578125,0.10285451775111622,-0.11857580414312621,0.03610566620537888,0.9686342210723379,0.22338608406557636,0.04361011245718496,0.0997224212747762
4,760.0,6.643909606933593,1.5131354492187499,-6.291961962890625,0.08553445647178318,-0.10725114869125461,0.005595712105630675,6.684265062164071,1.620296208625152,-6.4566344579568575,0.09610918099317485,-0.09398520514506144,0.04400328254235998,6.698976245117187,1.4221557861328125,-6.572083557128906,0.08553445647178318,-0.11857580414312621,0.005595712105630675,6.675949528399025,1.5109196009821257,-6.551212911805922,0.08435579984466528,-0.11668664460627028,0.011165343360558213,6.643909606933593,1.5131354492187499,-6.53138212890625,0.08553445647178318,-0.10725114869125461,0.005595712105630675,0.96843081391244,0.22446918338196836,0.04237172721983157,0.09979970495512232
4,770.0,6.658274816894531,1.37906015625,-6.5768719604492185,0.06208575812437844,-0.11950842282739799,-0.019718223610317616,6.6790670131101635,1.5720489981501218,-6.48068195845533,0.08930449641941558,-0.09908984868152876,0.03125898131182446,6.6893994384765625,1.3910311645507811,-6.5768719604492185,0.06208575812437844,-0.1148453294060391,-0.0006661562030512709,6.680354959839905,1.4872567373082979,-6.556250143878253,0.08116314637849145,-0.11594324703968041,0.003938173292417681,6.658274816894531,1.37906015625,-6.5768719604492185,0.06208575812437844,-0.11950842282739799,-0.019718223610317616,0.9682662153162468,0.2254393777960757,0.04109096461590714,0.09974545524987133
4,780.0,6.698976245117187,1.4221557861328125,-6.675034228515624,0.05675650849996828,-0.1148453294060391,-0.018652373685435583,6.683048859511569,1.54207035574666,-6.519552412467389,0.08279489883552613,-0.10224094482643084,0.02127671031237245,6.6893994384765625,1.4221557861328125,-6.5768719604492185,0.059554364552783616,-0.1148453294060391,-0.007327718233563979,6.6869727839497175,1.4709554168435524,-6.55991270591245,0.07759718967260143,-0.11485456056826811,-0.002188627501626575,6.698976245117187,1.4221557861328125,-6.675034228515624,0.05675650849996828,-0.1148453294060391,-0.018652373685435583,0.9681024961300498,0.22638574164271022,0.039832676152809346,0.09970160920542942
4,790.0,6.6893994384765625,1.3910311645507811,-6.720524060058593,0.059554364552783616,-0.1055191425633213,-0.0006661562030512709,6.684318975304568,1.5118625175074842,-6.559746741985631,0.07814679197897761,-0.10289658437380894,0.016888137009287707,6.698976245117187,1.4221557861328125,-6.5768719604492185,0.05675650849996828,-0.11950842282739799,-0.018652373685435583,6.695178101100432,1.4611115142881856,-6.561545395050204,0.07406064043310867,-0.11322158933174996,-0.006935273382237733,6.6893994384765625,1.3910311645507811,-6.720524060058593,0.059554364552783616,-0.1055191425633213,-0.0006661562030512709,0.9679223949882154,0.2273439672129808,0.03860042634219521,0.09975452339789552
4,800.0,6.751648681640624,1.5418658691406248,-6.469132885742187,0.05675650849996828,-0.127901990985844,-0.007327718233563979,6.69778491657178,1.5178631878341124,-6.541623970736943,0.07386873528317575,-0.10789766569621596,0.01204496596071737,6.698976245117187,1.458068811035156,-6.53138212890625,0.05675650849996828,-0.127901990985844,-0.018652373685435583,6.704330822821697,1.4562431750107308,-6.561158704376794,0.07078489901257758,-0.11083968792587999,-0.010129649594274173,6.751648681640624,1.5418658691406248,-6.469132885742187,0.05675650849996828,-0.127901990985844,-0.007327718233563979,0.9677511096813532,0.22829590790950344,0.03726446657595833,0.09975032668164306
4,810.0,6.725312463378906,1.458068811035156,-6.505045910644531,0.05595712105630675,-0.1340306280539157,-0.03543951000232761,6.703290425933206,1.5059043124743212,-6.5343083587184605,0.07028641243780195,-0.11312425816775593,0.002548070768108374,6.725312463378906,1.4604630126953124,-6.53138212890625,0.059554364552783616,-0.127901990985844,-0.021583460978861175,6.7139116425636765,1.4546307057046175,-6.559400295961605,0.06783934052195327,-0.10753696948605143,-0.01164022311488969,6.725312463378906,1.458068811035156,-6.505045910644531,0.05595712105630675,-0.1340306280539157,-0.03543951000232761,0.9675941089892061,0.2292378568038753,0.035927663030666745,0.09960345519360768
4,820.0,6.6271501953125,1.4604630126953124,-6.53138212890625,0.06661562030512709,-0.14442266482151553,-0.03583920372415837,6.688062379809065,1.4968160525185195,-6.533723112756019,0.069552254011267,-0.11938393949850784,-0.005129384130344975,6.751648681640624,1.4604630126953124,-6.53138212890625,0.06448392045536303,-0.127901990985844,-0.021583460978861175,6.723540961244734,1.454682880933239,-6.556890115312985,0.06516174876091903,-0.10327915559932423,-0.011394750813942728,6.6271501953125,1.4604630126953124,-6.53138212890625,0.06661562030512709,-0.14442266482151553,-0.03583920372415837,0.9674226773534353,0.2302420316921683,0.03455139333156577,0.09943928501060749
4,830.0,6.806715319824218,1.4915876342773438,-6.579266162109374,0.0651500766584143,-0.11617764181214164,-0.021583460978861175,6.711792967812096,1.4957703688702844,-6.5428317226266905,0.06867181854069646,-0.11874267996123461,-0.008420199500048214,6.725312463378906,1.4604630126953124,-6.545747338867187,0.06448392045536303,-0.11617764181214164,-0.021583460978861175,6.732801578750019,1.455030436009824,-6.5538630588083535,0.062605863824658,-0.09828492654525468,-0.009469005319806312,6.806715319824218,1.4915876342773438,-6.579266162109374,0.0651500766584143,-0.11617764181214164,-0.021583460978861175,0.9672396339687811,0.23122148659757663,0.03329013721265927,0.09937746917640496
4,840.0,6.833051538085937,1.429338391113281,-6.545747338867187,0.06448392045536303,-0.0863338439154447,0.003064318534035846,6.736044681866865,1.482483973318884,-6.54341484587479,0.06783423892362977,-0.11226091275207664,-0.006123295893231403,6.698976245117187,1.4604630126953124,-6.5601125488281244,0.06448392045536303,-0.0863338439154447,0.003064318534035846,6.741214667686002,1.4544646746010548,-6.550324045697741,0.06000140291289745,-0.09304654981252733,-0.006113916484891184,6.833051538085937,1.429338391113281,-6.545747338867187,0.06448392045536303,-0.0863338439154447,0.003064318534035846,0.9670395168980052,0.2321794380461428,0.03213867188642295,0.09947053370534988
4,850.0,6.698976245117187,1.5155296508789062,-6.564900952148437,0.054624808650204214,-0.0668820827863476,0.014921898948348467,6.72863099451693,1.4890931088308885,-6.54771206712952,0.06519235286894468,-0.10318514675893084,-0.001914256924915429,6.710947253417968,1.4628572143554686,-6.564900952148437,0.05489127113142472,-0.0668820827863476,0.003064318534035846,6.748544997712671,1.4519084330174101,-6.546275698776651,0.0571935384872769,-0.08821376706986891,-0.0016691186432855078,6.698976245117187,1.5155296508789062,-6.564900952148437,0.054624808650204214,-0.0668820827863476,0.014921898948348467,0.9668363315385499,0.23309508286838895,0.031073853346355505,0.0996423905668029
4,860.0,6.691793640136718,1.458068811035156,-6.5601125488281244,0.05489127113142472,-0.05222664631921964,0.006661562030512709,6.721263523640888,1.4828882492717421,-6.550192163469242,0.06313213652144069,-0.0929934466709886,-0.00019909313382980142,6.710947253417968,1.458068811035156,-6.5601125488281244,0.054624808650204214,-0.05222664631921964,0.006661562030512709,6.754865022383171,1.4464527892835735,-6.541809652554162,0.054045753067285845,-0.08440795799039004,0.0035582469001972958,6.691793640136718,1.458068811035156,-6.5601125488281244,0.05489127113142472,-0.05222664631921964,0.006661562030512709,0.9666337201248022,0.2339991807717707,0.030086462496065024,0.09979198009007825
4,870.0,6.710947253417968,1.4628572143554686,-6.603208178710937,0.04356661567955311,-0.05102756515372735,0.003064318534035846,6.719200269596305,1.4788820422884874,-6.560795366517581,0.05921903235306318,-0.08460027036753637,0.000453589199743328,6.710947253417968,1.4628572143554686,-6.5601125488281244,0.05315926500349141,-0.05222664631921964,0.014921898948348467,6.760147995684543,1.437434034306575,-6.537179953200255,0.05042252852304766,-0.08206378614406806,0.00934302205915853,6.710947253417968,1.4628572143554686,-6.603208178710937,0.04356661567955311,-0.05102756515372735,0.003064318534035846,0.9664439679211407,0.23484798080987132,0.029104307715177934,0.09992708366998271
4,880.0,6.809109521484374,1.4341267944335936,-6.5505357421875,0.046497702972978706,-0.03424042883683532,0.02211638594130219,6.7371821199739195,1.4699309927175086,-6.558743441651566,0.05667476647704629,-0.07452830206139616,0.004786148548055101,6.787561706542968,1.458068811035156,-6.5505357421875,0.04716385917602998,-0.05222664631921964,0.006661562030512709,6.763966612559885,1.4244467364529252,-6.532931038084737,0.046170842372231034,-0.08132873251274814,0.01550765829570802,6.809109521484374,1.4341267944335936,-6.5505357421875,0.046497702972978706,-0.03424042883683532,0.02211638594130219,0.9662393597106629,0.23569598169434997,0.028175103740449476,0.10017518399424048
4,890.0,6.787561706542968,1.5203180541992187,-6.543353137207031,0.05315926500349141,-0.0735436448168603,0.029177641693645662,6.74725803728773,1.4800084050138507,-6.55566538076266,0.055971666182335324,-0.074331370612489,0.009664447177173213,6.809109521484374,1.448492004394531,-6.543353137207031,0.04716385917602998,-0.0735436448168603,0.02211638594130219,6.765645269022549,1.4073461888441288,-6.529967178859676,0.04112069635791549,-0.08201480503758359,0.02189037342393795,6.787561706542968,1.5203180541992187,-6.543353137207031,0.05315926500349141,-0.0735436448168603,0.029177641693645662,0.9660253262885009,0.23660322169719514,0.027056798316373136,0.10040873526028644
4,900.0,6.8593877563476555,1.448492004394531,-6.392518432617187,0.04716385917602998,-0.10711791745064435,0.00013323124061025417,6.769683981099715,1.4737051248899868,-6.5230359911335665,0.054210104781074256,-0.08088867998012007,0.007758203989860621,6.809109521484374,1.4341267944335936,-6.543353137207031,0.04716385917602998,-0.10471975511965978,0.029177641693645662,6.764630069670099,1.3864189674760972,-6.529384405269874,0.03512448023467703,-0.08365128850903239,0.02834107876208395,6.8593877563476555,1.448492004394531,-6.392518432617187,0.04716385917602998,-0.10711791745064435,0.00013323124061025417,0.9658388169086901,0.23747966010914565,0.025796200551298602,0.10046564997044351
4,910.0,6.823474731445312,1.35990654296875,-6.325480786132812,0.04756355289786074,-0.11910872910556723,0.03863705977697371,6.780442131168835,1.4509454085057394,-6.483524950133416,0.05288079440443155,-0.08853268980520951,0.013933975147283239,6.787561706542968,1.3838485595703125,-6.461950280761719,0.04716385917602998,-0.10471975511965978,0.03863705977697371,6.760810493706729,1.3625731341432048,-6.531940717597413,0.028119087765399377,-0.08567753057983973,0.034681370219049865,6.823474731445312,1.35990654296875,-6.325480786132812,0.04756355289786074,-0.11910872910556723,0.03863705977697371,0.9656333335693739,0.23836124557525734,0.02442648885636706,0.10069522505888766
4,920.0,6.787561706542968,1.3838485595703125,-6.56968935546875,0.037171516130260915,-0.10471975511965978,0.0511607963943376,6.781866046243662,1.4375260387186541,-6.500757831200483,0.04973893874959742,-0.09177010286809957,0.021379339396694112,6.787561706542968,1.35990654296875,-6.461950280761719,0.037171516130260915,-0.10471975511965978,0.04263399699528134,6.7546957928854745,1.33726418398285,-6.537422732971355,0.0201770180272781,-0.0876654108960036,0.04066540210224331,6.787561706542968,1.3838485595703125,-6.56968935546875,0.037171516130260915,-0.10471975511965978,0.0511607963943376,0.9654265377683424,0.23919888674168,0.023115913047768333,0.10100072929509141
4,930.0,6.696582043457031,1.2378022583007813,-6.461950280761719,0.021183767257030413,-0.09579326199877275,0.05275957128166065,6.764809245686337,1.3975812826350795,-6.492996321112731,0.044027904451084024,-0.0925747346942342,0.02765538577368742,6.696582043457031,1.2808978881835937,-6.56968935546875,0.021183767257030413,-0.09579326199877275,0.0511607963943376,6.747334924403723,1.3122353034518428,-6.544530694754273,0.011530920162080875,-0.08941371775281132,0.04602650219077332,6.696582043457031,1.2378022583007813,-6.461950280761719,0.021183767257030413,-0.09579326199877275,0.05275957128166065,0.9652371710866687,0.2399443504402726,0.021830263797302168,0.1013279419851255
4,940.0,6.619967590332031,1.2808978881835937,-6.68461103515625,0.0025313935715948295,-0.08193721297530632,0.04263399699528134,6.735840914615476,1.3742446037447824,-6.531319263921436,0.035728602275186185,-0.09044723035044863,0.030651108018006204,6.696582043457031,1.2378022583007813,-6.663063220214843,0.0025313935715948295,-0.08193721297530632,0.05275957128166065,6.739915069463938,1.2892453063435036,-6.551356844114541,0.002558411708692307,-0.09089497220176306,0.05054180416117586,6.619967590332031,1.2808978881835937,-6.68461103515625,0.0025313935715948295,-0.08193721297530632,0.04263399699528134,0.9650680000511026,0.2406063813738671,0.020626208387588704,0.10162127753128236
4,950.0,6.687005236816406,1.1348515869140625,-6.663063220214843,-0.021450229738250923,-0.07980551312554225,0.05555742733447599,6.726073779055662,1.3263660003786386,-6.557668055180117,0.024292835872498766,-0.08831888690546737,0.03563237188130016,6.687005236816406,1.2282254516601563,-6.663063220214843,-0.021450229738250923,-0.08193721297530632,0.05555742733447599,6.733222931710563,1.2697816274638465,-6.556035690527841,-0.0062810430470058775,-0.09213943939428258,0.054023831668370784,6.687005236816406,1.1348515869140625,-6.663063220214843,-0.021450229738250923,-0.07980551312554225,0.05555742733447599,0.9649226939664205,0.2411375226460708,0.01939257156707344,0.10198440081069883
4,960.0,6.768408093261718,1.13006318359375,-6.751648681640624,-0.04036906590490701,-0.07434303226052183,0.06634915782390657,6.734540641896873,1.287105437021661,-6.596464180472219,0.011360455517017611,-0.08552371597647826,0.041775729069821445,6.687005236816406,1.2282254516601563,-6.663063220214843,-0.021450229738250923,-0.08193721297530632,0.06634915782390657,6.7273947264891225,1.2547240518793152,-6.557408950874683,-0.014547522078777768,-0.09312748552824804,0.05628899446126617,6.768408093261718,1.13006318359375,-6.751648681640624,-0.04036906590490701,-0.07434303226052183,0.06634915782390657,0.964792727657039,0.24157375183597238,0.01816137268363619,0.10240741978113088
4,970.0,6.68461103515625,1.2282254516601563,-6.6343328002929685,-0.036638591167819895,-0.09579326199877275,0.07447626350113208,6.724554720548749,1.2753294399493602,-6.604037904436369,0.0017606461800501096,-0.08757762518093716,0.048315835956083575,6.713341455078124,1.2282254516601563,-6.6343328002929685,-0.02491424199411753,-0.09579326199877275,0.06634915782390657,6.722137920544818,1.2440513033499556,-6.5555444162910685,-0.02192662666006931,-0.09372838969985238,0.057180031923930126,6.68461103515625,1.2282254516601563,-6.6343328002929685,-0.036638591167819895,-0.09579326199877275,0.04263399699528134,0.9646526090549824,0.24204551422627846,0.016823780659993688,0.10284100977069416
4,980.0,6.713341455078124,1.3144167114257812,-6.481103894042969,-0.020917304775809904,-0.12363859128631587,0.07141194496709624,6.722312067454625,1.2831468942446445,-6.579451102357689,-0.002774944011121893,-0.09478981840201291,0.052935057758286115,6.768408093261718,1.2425906616210938,-6.4834980957031245,-0.03543951000232761,-0.10818376737552639,0.06634915782390657,6.717026237616799,1.2369354485807187,-6.551750401199886,-0.028272057569308666,-0.09372784259739118,0.05662939173880653,6.713341455078124,1.3144167114257812,-6.481103894042969,-0.020917304775809904,-0.12363859128631587,0.07141194496709624,0.9644955411711137,0.24260497723080343,0.015362519350746309,0.10322387845396756
4,990.0,6.809109521484374,1.3215993164062498,-6.4834980957031245,-0.02491424199411753,-0.12710260354218247,0.04849617158213252,6.739671558260575,1.2908373786769656,-6.560260501026777,-0.007202803607721022,-0.10125237543004682,0.0520472805230554,6.713341455078124,1.2593500732421874,-6.481103894042969,-0.03543951000232761,-0.10818376737552639,0.04849617158213252,6.7116179378740295,1.2323413007801325,-6.5479705867247375,-0.03354366322551247,-0.09296106122239575,0.054694425109302953,6.809109521484374,1.3215993164062498,-6.4834980957031245,-0.02491424199411753,-0.12710260354218247,0.04849617158213252,0.9643541734147963,0.24313991800517215,0.013906550777625466,0.10349210759943303
4,1000.0,6.775590698242187,1.2425906616210938,-6.382941625976562,-0.03543951000232761,-0.10818376737552639,0.03903675349880447,6.7468553862568985,1.2811880352657912,-6.524796726016735,-0.01285014488664234,-0.10263865381914275,0.04944517511820522,6.713341455078124,1.2593500732421874,-6.481103894042969,-0.03543951000232761,-0.10818376737552639,0.04849617158213252,6.705678113668073,1.2296407634446376,-6.5459376082937135,-0.03770365757769296,-0.0914660341979379,0.05151471206202512,6.775590698242187,1.2425906616210938,-6.382941625976562,-0.03543951000232761,-0.10818376737552639,0.03903675349880447,0.9642290293433531,0.24360482235264377,0.012541272978062455,0.1037390281919097
4,1010.0,6.691793640136718,1.2593500732421874,-6.478709692382812,-0.04809647786030176,-0.08420214406568063,0.04036906590490701,6.735843037032863,1.2768204428610703,-6.515579319289951,-0.019899411481374224,-0.09895135186845033,0.04762995327554558,6.694187841796874,1.2425906616210938,-6.4834980957031245,-0.04596477801053769,-0.08420214406568063,0.04849617158213252,6.699478214175653,1.2287796624135805,-6.546559439486034,-0.0406713905143734,-0.08952498044441656,0.04721880455648267,6.691793640136718,1.2593500732421874,-6.478709692382812,-0.021583460978861175,-0.08420214406568063,0.04036906590490701,0.964113240689797,0.24400437878833683,0.011289840641685523,0.10401952584500924
4,1020.0,6.6319385986328125,1.177947216796875,-6.519411120605469,-0.04596477801053769,-0.03424042883683532,0.04849617158213252,6.715062149352853,1.2570457976482314,-6.516345679553055,-0.025112484787206915,-0.08600916726212733,0.047803196936862975,6.691793640136718,1.2042834350585936,-6.509834313964843,-0.04809647786030176,-0.08420214406568063,0.046231240491758196,6.693738509266063,1.2300703032910332,-6.549732011214005,-0.042352276653833856,-0.0875410627537204,0.0418687703295626,6.6319385986328125,1.177947216796875,-6.519411120605469,-0.04596477801053769,-0.08526799399056267,0.04849617158213252,0.9639868040226555,0.24438649768253093,0.010268729751402016,0.10439939947119174
4,1030.0,6.694187841796874,1.1659762084960936,-6.509834313964843,-0.04929555902579404,-0.07141194496709624,0.05395865244715294,6.710887287841658,1.238831879817804,-6.515043406435413,-0.029949099634924342,-0.08308972280312113,0.04903428803892097,6.660669018554687,1.2042834350585936,-6.519411120605469,-0.04929555902579404,-0.08420214406568063,0.046231240491758196,6.689235141817081,1.2338552659320385,-6.554539758747665,-0.04268189128863439,-0.08581768098027064,0.03549380679937919,6.694187841796874,1.1659762084960936,-6.509834313964843,-0.04929555902579404,-0.07141194496709624,0.05395865244715294,0.9638631941377964,0.24476715945744887,0.009056355645703732,0.10476050333992652
4,1040.0,6.660669018554687,1.2042834350585936,-6.672640026855468,-0.05662327725935802,-0.09086370609619335,0.046231240491758196,6.700843633984264,1.2319221908659619,-6.546562730519424,-0.03528393515981108,-0.08464451946173558,0.04847367852948842,6.660669018554687,1.2042834350585936,-6.591237170410156,-0.04929555902579404,-0.0846018377875114,0.046231240491758196,6.686531758253055,1.2401719806180758,-6.559637854290528,-0.04165278324525724,-0.0844219001568842,0.028180878365758184,6.660669018554687,1.2042834350585936,-6.672640026855468,-0.021583460978861175,-0.09086370609619335,0.046231240491758196,0.9637494234074677,0.24513192184620966,0.007763520577918986,0.10505768663926233
4,1050.0,6.639121203613281,1.2306196533203124,-6.629544396972656,-0.05715620222179904,-0.0860673814342242,0.02971056665608668,6.688499147910068,1.2316616833568321,-6.563159063810072,-0.03965838857220867,-0.08492909185623332,0.04472105615480807,6.682216833496093,1.2306196533203124,-6.591237170410156,-0.04929555902579404,-0.0860673814342242,0.02971056665608668,6.685955736280881,1.248587975803432,-6.563719521626415,-0.039345129919509836,-0.08324686745846062,0.020150491113818222,6.639121203613281,1.2306196533203124,-6.629544396972656,-0.021583460978861175,-0.0860673814342242,0.02971056665608668,0.9636429622817899,0.24549129514941484,0.006514364471362852,0.10527976209212292
4,1060.0,6.682216833496093,1.3072341064453123,-6.591237170410156,-0.04889586530396328,-0.0846018377875114,0.009326186842717792,6.6872426850272735,1.2467761679745282,-6.568774685130089,-0.0415058839185596,-0.08486364104248895,0.037642082292390015,6.682216833496093,1.2808978881835937,-6.591237170410156,-0.04889586530396328,-0.0860673814342242,0.009326186842717792,6.687589109004536,1.258317165568808,-6.565954640909041,-0.03596752313767502,-0.08214889291010873,0.01176448372343101,6.682216833496093,1.3072341064453123,-6.591237170410156,-0.04889586530396328,-0.0846018377875114,0.009326186842717792,0.9635352062080447,0.24588991815463143,0.005302814168505936,0.10540367502807198
4,1070.0,6.751648681640624,1.3096283081054687,-6.56968935546875,-0.016254211354451008,-0.10312098023233673,-0.012390505376753638,6.700123884349944,1.2593465960007162,-6.568957619197822,-0.036455549405737885,-0.08851510888045852,0.027635564758561285,6.682216833496093,1.2808978881835937,-6.56968935546875,-0.021583460978861175,-0.0860673814342242,-0.011591117933092114,6.691299545153109,1.2685215673777526,-6.566083849830627,-0.031860371418444056,-0.08102216668465523,0.0034617332505482595,6.751648681640624,1.3096283081054687,-6.56968935546875,-0.016254211354451008,-0.10312098023233673,-0.012390505376753638,0.9633986791846809,0.24645005760507413,0.0040424103912671035,0.10539930251143102
4,1080.0,6.7085530517578125,1.2808978881835937,-6.526593725585937,-0.021583460978861175,-0.08526799399056267,-0.011591117933092114,6.701809717831518,1.263656854437292,-6.5604848404754454,-0.033481131720362545,-0.08786568590247935,0.019790228220230608,6.7085530517578125,1.3000515014648437,-6.533776330566406,-0.016254211354451008,-0.08526799399056267,-0.012390505376753638,6.69695946811463,1.2785850102182161,-6.564165480760814,-0.027424192617185095,-0.0798403357651124,-0.004337133919894513,6.7085530517578125,1.2808978881835937,-6.526593725585937,-0.021583460978861175,-0.08526799399056267,-0.011591117933092114,0.9632666858304115,0.2469728909622708,0.0028627662472265076,0.10542052773747292
4,1090.0,6.58884296875,1.2785036865234374,-6.533776330566406,-0.013989280264076687,-0.09459418083328046,-0.027845329287543123,6.679216368015215,1.2666262208545211,-6.555143138493638,-0.029582761429105375,-0.08921138488863958,0.010263116718675861,6.713341455078124,1.3000515014648437,-6.533776330566406,-0.013989280264076687,-0.08526799399056267,-0.022516079663132956,6.704582517458599,1.288158101906448,-6.560265299253271,-0.023023943406022783,-0.07869210498134693,-0.011300137861943798,6.732495068359374,1.2785036865234374,-6.533776330566406,-0.013989280264076687,-0.09459418083328046,-0.027845329287543123,0.9631310733463769,0.24754225059799362,0.0016667420364800145,0.10534985379448773
4,1100.0,6.713341455078124,1.3000515014648437,-6.53138212890625,-0.007860643196004996,-0.07900612568188073,-0.02744563556571236,6.686041385427797,1.2733112769765857,-6.550390936576161,-0.025238337782485302,-0.08717033304728782,0.002721366261798217,6.713341455078124,1.3000515014648437,-6.533776330566406,-0.009326186842717792,-0.07900612568188073,-0.022516079663132956,6.714082833497881,1.2970120490438142,-6.55425112750825,-0.018941665126252984,-0.0777846389803763,-0.017212211301503442,6.713341455078124,1.3000515014648437,-6.53138212890625,-0.007860643196004996,-0.07900612568188073,-0.02744563556571236,0.962987121221394,0.24812748945059676,0.0005447177434382216,0.10530079118058147
4,1110.0,6.732495068359374,1.3718775512695311,-6.742071875,-0.009326186842717792,-0.05595712105630675,-0.022516079663132956,6.695332122014112,1.293024531835175,-6.588727124260929,-0.022055907594531802,-0.0809276906490916,-0.0023261229231880173,6.713341455078124,1.3215993164062498,-6.533776330566406,-0.007860643196004996,-0.06435068921475276,-0.024381317031676515,6.72500756041404,1.3049630549454432,-6.54586437377177,-0.015369068454351922,-0.07740229266763049,-0.021975091795691105,6.732495068359374,1.3718775512695311,-6.528987927246093,-0.009326186842717792,-0.05595712105630675,-0.022516079663132956,0.9628383036171014,0.24870443386580476,-0.00046417947191704754,0.1053009506160786
4,1120.0,6.7803791015625,1.3215993164062498,-6.555324145507812,-0.006128637068071692,-0.0511607963943376,-0.018918836166656093,6.71234151792379,1.29873948874939,-6.582046528510306,-0.018870453489239783,-0.07497431179814079,-0.005644665571881632,6.732495068359374,1.3215993164062498,-6.53138212890625,-0.006128637068071692,-0.06435068921475276,-0.024381317031676515,6.736663361462091,1.3119904338481359,-6.5351763422923135,-0.012410443979874902,-0.0778067276991571,-0.025572541901091355,6.7803791015625,1.3215993164062498,-6.555324145507812,-0.006128637068071692,-0.0511607963943376,-0.018918836166656093,0.9626852651489446,0.24928135947107996,-0.0014626023020842577,0.10532684785876066
4,1130.0,6.698976245117187,1.3287819213867187,-6.528987927246093,0.0003996937218307625,-0.06435068921475276,-0.024381317031676515,6.709668463362471,1.3047479752768558,-6.571434808257464,-0.015016424047025675,-0.07284958728146318,-0.00939199586384061,6.749254479980468,1.3287819213867187,-6.555324145507812,-0.006128637068071692,-0.06435068921475276,-0.024381317031676515,6.748389415112296,1.3183584730492524,-6.5229794267071135,-0.010091273780529266,-0.07911535296268225,-0.02800750729219994,6.698976245117187,1.3287819213867187,-6.528987927246093,0.0003996937218307625,-0.06435068921475276,-0.024381317031676515,0.9625247467787659,0.2498996610595317,-0.0025115441548445518,0.1053088950980015
4,1140.0,6.749254479980468,1.2497732666015624,-6.347028601074219,-0.004396630940138388,-0.07594180714784488,-0.03424042883683532,6.717585666686071,1.2937530335417973,-6.526553566820815,-0.012892465425648219,-0.07346803125473952,-0.014361682458439553,6.7803791015625,1.3215993164062498,-6.53138212890625,-0.004396630940138388,-0.07594180714784488,-0.03424042883683532,6.759577462718534,1.3245172891693364,-6.510533819287072,-0.008362234562959772,-0.08125125112347394,-0.029259619239307012,6.749254479980468,1.2497732666015624,-6.53138212890625,-0.004396630940138388,-0.07594180714784488,-0.03424042883683532,0.9623772365417552,0.2504859383243253,-0.003617803927257113,0.10523193803585001
4,1150.0,6.809109521484374,1.3575123413085937,-6.56968935546875,-0.014655436467127959,-0.080205206847373,-0.041168453348568536,6.7358904376457325,1.3065048950951565,-6.535180724550402,-0.013245059633944168,-0.07481546637326622,-0.019723036636465352,6.751648681640624,1.3192051147460937,-6.528987927246093,-0.003064318534035846,-0.080205206847373,-0.036505359927209644,6.7695463379248055,1.3308512857667718,-6.498929545450472,-0.007109543441100669,-0.08398544669443406,-0.029298416665458113,6.809109521484374,1.3575123413085937,-6.56968935546875,-0.014655436467127959,-0.080205206847373,-0.041168453348568536,0.9622417412466747,0.25103734984943343,-0.004731451772914823,0.1051127668138429
4,1160.0,6.892906579589844,1.3024457031249999,-6.53138212890625,0.00159877488732305,-0.09046401237436258,-0.041035222107958284,6.767293666034555,1.3056930567011253,-6.534421005421572,-0.010276292729690726,-0.0779451755734855,-0.02398547373076394,6.766013891601562,1.3024457031249999,-6.514622717285156,-0.004396630940138388,-0.09046401237436258,-0.036505359927209644,6.777651142391993,1.3375399627058961,-6.488871946272462,-0.006188177942800992,-0.08700764380379898,-0.028136925397413245,6.892906579589844,1.3024457031249999,-6.53138212890625,0.00159877488732305,-0.09046401237436258,-0.041035222107958284,0.9620861196229767,0.2516625881340105,-0.00589329018924358,0.10498337627091234
4,1170.0,6.751648681640624,1.3192051147460937,-6.337451794433593,-0.003064318534035846,-0.1020551303074547,-0.036505359927209644,6.764164669155769,1.308395468310119,-6.495027163223977,-0.008833897890559751,-0.08276716652027934,-0.02648945097005308,6.768408093261718,1.3192051147460937,-6.514622717285156,-0.010392036767599826,-0.1005895866607419,-0.036505359927209644,6.783609281507998,1.3445775975864862,-6.480942453682482,-0.005443924554196137,-0.0899869120802578,-0.02588239683687096,6.751648681640624,1.3192051147460937,-6.528987927246093,-0.003064318534035846,-0.1020551303074547,-0.036505359927209644,0.9619317525108458,0.25227155206718743,-0.007118211762146364,0.10486037664596799
4,1180.0,6.766013891601562,1.2904746948242187,-6.514622717285156,-0.01212404289553313,-0.1005895866607419,-0.0003996937218307625,6.764534513644929,1.3048113136129391,-6.498946274036213,-0.009491926891554427,-0.08633165054837184,-0.021271499520408618,6.768408093261718,1.3192051147460937,-6.490680700683593,-0.010392036767599826,-0.1020551303074547,-0.02811179176876363,6.787572408662508,1.3517436135510463,-6.4756215828273245,-0.00470834375907863,-0.09262790263401187,-0.022736479369411887,6.766013891601562,1.2904746948242187,-6.514622717285156,-0.01212404289553313,-0.1005895866607419,-0.0003996937218307625,0.961767303787745,0.2528378978794926,-0.008383839482398963,0.10491121006005025
4,1190.0,6.768408093261718,1.3646949462890625,-6.490680700683593,-0.010392036767599826,-0.10964931102223918,-0.02811179176876363,6.765309229568286,1.3167880401481638,-6.4972931593656895,-0.009671948866763508,-0.09099518264314532,-0.022639557970079622,6.766013891601562,1.3646949462890625,-6.471527087402343,-0.01212404289553313,-0.10325421147294699,-0.02651301688144058,6.789818775431544,1.3584997489828294,-6.473108829203191,-0.00381196609219046,-0.09471659209358241,-0.01893042012850359,6.768408093261718,1.3646949462890625,-6.490680700683593,-0.010392036767599826,-0.10964931102223918,-0.02811179176876363,0.9616121228823402,0.2534217890589288,-0.00965379682369656,0.10481567708495593
4,1200.0,6.804321118164062,1.3958195678710936,-6.471527087402343,-0.018119448722994567,-0.11417917320298783,-0.02651301688144058,6.773111607287442,1.3325943456927498,-6.492139944973021,-0.01136144883800972,-0.09563198075511384,-0.023414249752351818,6.768408093261718,1.3670891479492187,-6.471527087402343,-0.01212404289553313,-0.10325421147294699,-0.011457886692481859,6.790492121762356,1.3640260578347194,-6.473459524140288,-0.0026287428991500538,-0.0961505041360259,-0.014676544408374442,6.804321118164062,1.3958195678710936,-6.471527087402343,-0.018119448722994567,-0.11417917320298783,-0.02651301688144058,0.961463942352796,0.25396975419609064,-0.010951797663389108,0.10472110406664487
4,1210.0,6.76122548828125,1.3670891479492187,-6.320692382812499,-0.019318529888486854,-0.10325421147294699,-0.011457886692481859,6.770734383486204,1.3394933061440437,-6.4578504325409165,-0.012952865048105148,-0.09715642689868047,-0.02102297714037783,6.804321118164062,1.3958195678710936,-6.471527087402343,-0.010392036767599826,-0.10498621760088028,-0.011457886692481859,6.789597923263565,1.3674356066406972,-6.476700182296212,-0.0011250805767593615,-0.09696052110776257,-0.010202887661909384,6.76122548828125,1.3670891479492187,-6.320692382812499,-0.019318529888486854,-0.10325421147294699,-0.011457886692481859,0.9613094654494462,0.2544992940829049,-0.012221204267744442,0.10471324230893157
4,1220.0,6.849810949707031,1.4317325927734375,-6.4643444824218745,-0.007727411955394742,-0.06941347635794243,0.0035972434964768626,6.78654969673037,1.3579411634699223,-6.459149242517109,-0.011907774429563067,-0.09160783679053287,-0.01609893301300689,6.804321118164062,1.3958195678710936,-6.471527087402343,-0.007727411955394742,-0.10325421147294699,0.0035972434964768626,6.787094458553047,1.3679777922710155,-6.4825146658886075,0.0006018587677390926,-0.09728649699152808,-0.005788484048232748,6.849810949707031,1.4317325927734375,-6.4643444824218745,-0.007727411955394742,-0.06941347635794243,0.0035972434964768626,0.9611316635393937,0.25507042515853545,-0.013337031194665727,0.1048194979493512
4,1230.0,6.849810949707031,1.448492004394531,-6.495469104003906,0.009459418083328047,-0.10498621760088028,0.0075941807147844875,6.799201947325702,1.3760513316548442,-6.466413214814469,-0.007634335926984844,-0.09428351295260236,-0.011360310267448616,6.768408093261718,1.3862427612304686,-6.495469104003906,0.009459418083328047,-0.10325421147294699,0.0037304747370871167,6.78305409224199,1.3651975282737452,-6.48996171539548,0.0023266086620546147,-0.0972815147801055,-0.001723189591742567,6.849810949707031,1.448492004394531,-6.495469104003906,0.009459418083328047,-0.10498621760088028,0.0075941807147844875,0.9609252738997393,0.2557439917849093,-0.014618197758010662,0.10489965176748298
4,1240.0,6.710947253417968,1.3862427612304686,-6.586448767089843,0.02011791733214838,-0.09805819308914707,0.008393568158446012,6.781551008544156,1.378089617569969,-6.490420325269544,-0.0020838852751581998,-0.0950384489799113,-0.00740953458226969,6.823474731445312,1.3862427612304686,-6.495469104003906,0.01718683003872279,-0.09805819308914707,0.0075941807147844875,6.777849211020819,1.3591263137597147,-6.497707260571024,0.003764954787086805,-0.09704063808439681,0.001755600568015571,6.710947253417968,1.3862427612304686,-6.586448767089843,0.02011791733214838,-0.09805819308914707,0.008393568158446012,0.9607021257057997,0.2564698178567232,-0.015857568047551222,0.10499140787947527
4,1250.0,6.768408093261718,1.3718775512695311,-6.572083557128906,0.019718223610317616,-0.10618529876637257,0.0037304747370871167,6.778922425487669,1.3768472043098816,-6.506752971641417,0.0022765365019369634,-0.09726781893720356,-0.005181532718398329,6.768408093261718,1.3718775512695311,-6.545747338867187,0.01718683003872279,-0.09805819308914707,0.008393568158446012,6.772073561102227,1.3503522102634191,-6.504559982456421,0.00467782710870031,-0.09663039537844212,0.004484740920989672,6.768408093261718,1.3718775512695311,-6.572083557128906,0.019718223610317616,-0.10618529876637257,0.0037304747370871167,0.9604802514578734,0.2571933985981388,-0.017133485102121777,0.10505087322442618
4,1260.0,6.823474731445312,1.3215993164062498,-6.452373474121093,0.01718683003872279,-0.09512710579572148,0.014655436467127959,6.7878328866791975,1.3657976267291554,-6.495877072137352,0.0052585952092941285,-0.09683967630890715,-0.0012141388812930715,6.766013891601562,1.3311761230468748,-6.545747338867187,0.01718683003872279,-0.09512710579572148,0.014655436467127959,6.766302540205426,1.3398581416847721,-6.509799884548413,0.0049461748160288845,-0.09614642064016196,0.00635883111250151,6.823474731445312,1.3215993164062498,-6.452373474121093,0.01718683003872279,-0.09512710579572148,0.014655436467127959,0.9602571734224773,0.2578871241368986,-0.018379509943508537,0.10517882728624864
4,1270.0,6.766013891601562,1.3311761230468748,-6.545747338867187,0.013856049023466434,-0.08286983165957809,0.02171669221947143,6.783469087663671,1.3588733259926995,-6.50585112548332,0.00697808597212859,-0.09404570737904135,0.003372027338859829,6.766013891601562,1.3215993164062498,-6.545747338867187,0.013856049023466434,-0.0941944871114497,0.014655436467127959,6.761118304971896,1.3287845231773499,-6.513064778828532,0.0045900298070196514,-0.09571718397223072,0.0073221371735762725,6.766013891601562,1.3311761230468748,-6.545747338867187,0.013856049023466434,-0.08286983165957809,0.02171669221947143,0.9600324379136757,0.25856363962240864,-0.019572555857415443,0.10535405770992314
4,1280.0,6.7037646484375,1.2497732666015624,-6.5218053222656245,0.006928024511733217,-0.08473506902812165,0.01851914244482533,6.767528199818438,1.3370533141144723,-6.50904196483978,0.006968073680049515,-0.0921835797088574,0.00640145036005293,6.766013891601562,1.3048399047851562,-6.5218053222656245,0.006928024511733217,-0.08473506902812165,0.014655436467127959,6.7572462193726155,1.318237012704997,-6.514088584994559,0.00374911564679861,-0.0954529149251798,0.007395762650933101,6.7037646484375,1.2497732666015624,-6.5218053222656245,0.006928024511733217,-0.08473506902812165,0.01851914244482533,0.9598171446369054,0.2592040305601152,-0.020776997030738185,0.10551130648813697
4,1290.0,6.60799658203125,1.2282254516601563,-6.624755993652343,-0.002264931090374321,-0.0941944871114497,0.005595712105630675,6.735621876261,1.315287741623609,-6.532184770602294,0.005121472725964748,-0.09258576118937588,0.006240302709168479,6.756437084960937,1.2904746948242187,-6.5218053222656245,-0.002264931090374321,-0.08473506902812165,0.005595712105630675,6.755344390697612,1.30907467221799,-6.5127164934419,0.0026433313976816915,-0.09539105042542548,0.006702872839302893,6.768408093261718,1.2282254516601563,-6.624755993652343,-0.002264931090374321,-0.0941944871114497,0.005595712105630675,0.9596163143017744,0.25981261894920393,-0.022010024171733544,0.10559115112827183
4,1300.0,6.801926916503906,1.3048399047851562,-6.5218053222656245,-0.009859111805158808,-0.08393568158446013,-0.004529862180748642,6.748882884309581,1.3131981742559187,-6.53010888093496,0.002125355819740037,-0.09085574526839274,0.004086269731185055,6.756437084960937,1.2904746948242187,-6.5218053222656245,-0.005728943346240929,-0.08886523748703953,-0.004529862180748642,6.755575565906719,1.301691064243963,-6.509158939266915,0.0015160926039385519,-0.09548529946266895,0.005441024779774539,6.801926916503906,1.3048399047851562,-6.5218053222656245,-0.009859111805158808,-0.08393568158446013,-0.004529862180748642,0.959431907445178,0.26037213217526695,-0.02319005370340695,0.1056361167965097
4,1310.0,6.756437084960937,1.2904746948242187,-6.45476767578125,-0.008127105677225504,-0.08886523748703953,-0.014522205226517705,6.750393724439853,1.3086534783695787,-6.5150406399042184,7.486352034692884e-05,-0.0904576437121221,0.0003645747396445031,6.763619689941406,1.2928688964843749,-6.49307490234375,-0.006128637068071692,-0.0941944871114497,-0.004529862180748642,6.757530590669067,1.2960081013391398,-6.504090174647343,0.0005720079166780911,-0.09561646928234148,0.0038040220159156505,6.756437084960937,1.2904746948242187,-6.45476767578125,-0.008127105677225504,-0.08886523748703953,-0.014522205226517705,0.9592486500547635,0.26094177777221234,-0.024380761390079733,0.10562667492272718
4,1320.0,6.773196496582031,1.3000515014648437,-6.476315490722656,-0.005728943346240929,-0.09699234316426504,-0.008793261880276775,6.754954278868289,1.3069330829886319,-6.5072956100679065,-0.0010858978529706428,-0.09176458360255069,-0.0014669925843397527,6.773196496582031,1.3000515014648437,-6.476315490722656,-0.006128637068071692,-0.09699234316426504,-0.004529862180748642,6.760575957724002,1.2917043160522474,-6.498381040028203,-6.308064499452341e-05,-0.0955958871699921,0.0018993748836165572,6.773196496582031,1.3000515014648437,-6.476315490722656,-0.005728943346240929,-0.09699234316426504,-0.008793261880276775,0.9590564504200175,0.2615264071286156,-0.02561618018499231,0.10563368115749922
4,1330.0,6.763619689941406,1.2928688964843749,-6.49307490234375,-0.006128637068071692,-0.10645176124759308,0.0010658499248820334,6.756687361082912,1.3041202456877805,-6.504451468523076,-0.0020944456959908525,-0.09470201913155916,-0.0009604240824953956,6.773196496582031,1.3000515014648437,-6.45476767578125,-0.005728943346240929,-0.09699234316426504,-0.0033307810152563544,6.764129427332441,1.288418208802914,-6.492763139148455,-0.00034579940119797446,-0.09519016628564594,-0.0002864602602147847,6.763619689941406,1.2928688964843749,-6.49307490234375,-0.006128637068071692,-0.10645176124759308,0.0010658499248820334,0.9588564442879325,0.2621126065221736,-0.026909720832430213,0.10567482043692186
4,1340.0,6.782773303222656,1.3072341064453123,-6.421248852539062,-0.00479632466196915,-0.135229709219408,0.03357427263378405,6.761904549510861,1.3047430178392871,-6.487810945326273,-0.0026348214891865123,-0.10280755714912893,0.005946515260760493,6.773196496582031,1.3000515014648437,-6.461950280761719,-0.00479632466196915,-0.09699234316426504,-0.0033307810152563544,6.767691035424518,1.2858325206950663,-6.48772751841756,-0.00030060817594949153,-0.09420109652384626,-0.0028334891607602274,6.782773303222656,1.3072341064453123,-6.421248852539062,-0.00479632466196915,-0.08886523748703953,-0.008793261880276775,0.9586320918085977,0.2627126666338126,-0.02838482886963107,0.10583415722187926
4,1350.0,6.83783994140625,1.3120225097656248,-6.449979272460937,-0.0035972434964768626,-0.09139663105863437,-0.0033307810152563544,6.77709162788994,1.3061989162245546,-6.480244610753206,-0.0028273058906445824,-0.10052537193103002,0.004091056005557123,6.766013891601562,1.3072341064453123,-6.461950280761719,-0.0035972434964768626,-0.09139663105863437,-0.0033307810152563544,6.77087008082811,1.283735998001809,-6.483491394913777,-7.113005643694156e-06,-0.09257478917684729,-0.005761885255910966,6.83783994140625,1.3120225097656248,-6.449979272460937,-0.0035972434964768626,-0.09139663105863437,-0.0033307810152563544,0.9584302126635648,0.26329830985437214,-0.029601774898024166,0.10587380414621696
4,1360.0,6.766013891601562,1.2665326782226562,-6.461950280761719,0.0009326186842717792,-0.08300306290018834,-0.010125574286379318,6.774876080632264,1.298265668624175,-6.4765857447549084,-0.0020753209756613103,-0.09702091012486169,0.0012477299471698351,6.766013891601562,1.3072341064453123,-6.461950280761719,0.0009326186842717792,-0.08806585004337801,-0.010125574286379318,6.773503328402791,1.2820760698054554,-6.479912220683047,0.0004112748399590977,-0.09043385287459063,-0.008952299629412358,6.766013891601562,1.2665326782226562,-6.461950280761719,0.0009326186842717792,-0.08300306290018834,-0.010125574286379318,0.9582254210617622,0.2639021281936926,-0.030766912262676305,0.10589195567024501
4,1370.0,6.744466076660156,1.3168109130859373,-6.564900952148437,0.0042633996995281335,-0.07754058203516793,-0.017320061279333044,6.768794079837843,1.3019747175165275,-6.494248786233615,-0.0008075768406234215,-0.09312484450692295,-0.002465828298130741,6.766013891601562,1.2808978881835937,-6.4643444824218745,0.0042633996995281335,-0.08806585004337801,-0.017053598798112534,6.775679552610337,1.2809470829755794,-6.47656415035468,0.00080612115341645,-0.08798153520181701,-0.01218989084554853,6.744466076660156,1.3168109130859373,-6.564900952148437,0.0042633996995281335,-0.07754058203516793,-0.017320061279333044,0.9580175599695849,0.2645273874408604,-0.031888501406908645,0.10588077994450806
4,1380.0,6.730100866699218,1.2808978881835937,-6.4643444824218745,0.005595712105630675,-0.08806585004337801,-0.017053598798112534,6.761055437210119,1.2977593516499408,-6.488267925471267,0.00047308094862739784,-0.09211304561421396,-0.0053833823981271,6.766013891601562,1.2737152832031249,-6.4643444824218745,0.0042633996995281335,-0.08806585004337801,-0.017320061279333044,6.777528899347523,1.280559853569289,-6.473044212379352,0.0010306693998011192,-0.08539128187791593,-0.01524926585716028,6.730100866699218,1.2808978881835937,-6.4643444824218745,0.005595712105630675,-0.08806585004337801,-0.017053598798112534,0.957805661809587,0.2651586869430772,-0.033064054671291074,0.10585817508731275
4,1390.0,6.83783994140625,1.2521674682617188,-6.5385647338867185,0.00799387443661525,-0.0892649312088703,-0.02211638594130219,6.7764123380493455,1.2886409749722965,-6.498327287154358,0.0019772396462249685,-0.09154342273314524,-0.008729983106762118,6.777984899902344,1.2737152832031249,-6.4643444824218745,0.0042633996995281335,-0.08806585004337801,-0.02211638594130219,6.779004592759171,1.2812218524387144,-6.46923839732707,0.0009661832505299151,-0.08278847837593482,-0.017932999565369083,6.83783994140625,1.2521674682617188,-6.5385647338867185,0.00799387443661525,-0.0892649312088703,-0.02211638594130219,0.957592333780889,0.26579795529945116,-0.03424067978958913,0.10581089306043928
4,1400.0,6.777984899902344,1.2737152832031249,-6.4475850708007805,0.0033307810152563544,-0.09019754989314208,-0.02624655440022007,6.776726850419945,1.2856558366184623,-6.488178843883643,0.0022479479200312458,-0.09127424816514462,-0.01223329736545371,6.777984899902344,1.2737152832031249,-6.461950280761719,0.005595712105630675,-0.08806585004337801,-0.02584686067838931,6.779944363850087,1.283243190109599,-6.465374212788354,0.0005396395702487454,-0.08030018155139095,-0.020078543011809905,6.777984899902344,1.2737152832031249,-6.4475850708007805,0.0033307810152563544,-0.09019754989314208,-0.02624655440022007,0.9573853383833778,0.26641644870408693,-0.03541769990907755,0.10574108114445574
4,1410.0,6.777984899902344,1.235408056640625,-6.461950280761719,0.0018652373685435584,-0.0767411945915064,-0.02584686067838931,6.776978460316425,1.275606280622895,-6.482933131259259,0.0021714058097337084,-0.08836763745041698,-0.014956010028040832,6.801926916503906,1.2569558715820313,-6.461950280761719,0.0033307810152563544,-0.0767411945915064,-0.02584686067838931,6.780262698512606,1.2867913769221764,-6.4619298497235125,-0.0002734119742068052,-0.0781021203464685,-0.021565133022590895,6.777984899902344,1.235408056640625,-6.461950280761719,0.0018652373685435584,-0.0767411945915064,-0.02584686067838931,0.9571813367812799,0.2670179986448254,-0.03653327309945162,0.10569104443591748
4,1420.0,6.801926916503906,1.350329736328125,-6.335057592773437,0.006528330789902455,-0.06621592658329632,-0.02997702913730719,6.781968151553921,1.290550971763941,-6.453358023562094,0.003042790805767458,-0.08393729527699284,-0.017960213849894106,6.777984899902344,1.2737152832031249,-6.4475850708007805,0.002264931090374321,-0.06741500774878861,-0.02584686067838931,6.779993005207933,1.2918324985525156,-6.459407162191675,-0.0014559128793626794,-0.07641553467962015,-0.022322555519948557,6.801926916503906,1.350329736328125,-6.461950280761719,0.006528330789902455,-0.08806585004337801,-0.02997702913730719,0.9569733139803425,0.26763868260414775,-0.03758803401150636,0.10563499232047535
4,1430.0,6.825868933105468,1.2569558715820313,-6.505045910644531,0.002264931090374321,-0.06741500774878861,-0.025313935715948293,6.790748307864232,1.2838319517275592,-6.463695600978582,0.0028872188626888305,-0.080632837771352,-0.019430958223104942,6.777984899902344,1.2856862915039062,-6.461950280761719,0.0018652373685435584,-0.06741500774878861,-0.025313935715948293,6.77927671522283,1.2982176452096703,-6.458023513116884,-0.002947903525388044,-0.07545478141175854,-0.022336062932869445,6.825868933105468,1.2569558715820313,-6.505045910644531,0.002264931090374321,-0.08566768771239343,-0.025313935715948293,0.9567671551069804,0.2682367298327137,-0.03865861617938547,0.10559914333100483
4,1440.0,6.746860278320312,1.3192051147460937,-6.440402465820312,-0.0031975497746461,-0.03557274124293786,-0.02358192958801499,6.781970701955448,1.2909065843312661,-6.459036973946929,0.0016702651352218446,-0.07162081846566917,-0.020261152496086954,6.789955908203124,1.3192051147460937,-6.48589229736328,-0.0031975497746461,-0.06741500774878861,-0.02358192958801499,6.778428524112943,1.3057880223817857,-6.457623137445077,-0.004638110126644209,-0.07535323826112063,-0.02164318397642746,6.746860278320312,1.3192051147460937,-6.440402465820312,-0.0031975497746461,-0.08566768771239343,-0.02358192958801499,0.9565711201249831,0.2687965066696512,-0.03957751835995558,0.10561131655980233
4,1450.0,6.770802294921874,1.2856862915039062,-6.48589229736328,-0.006528330789902455,-0.08007197560676275,-0.018785604926045838,6.779737020548734,1.2898625257657943,-6.464408038630199,3.054595019698456e-05,-0.0733110498938879,-0.01996604298207873,6.789955908203124,1.2856862915039062,-6.48589229736328,-0.006528330789902455,-0.08007197560676275,-0.02358192958801499,6.777908890608214,1.314359682859825,-6.457889094800864,-0.006370606352903525,-0.07608976875065158,-0.020318568410501354,6.770802294921874,1.2856862915039062,-6.48589229736328,-0.006528330789902455,-0.08007197560676275,-0.018785604926045838,0.9563672741533497,0.2693606389735633,-0.040718828989906246,0.10558626835879867
4,1460.0,6.789955908203124,1.3359645263671873,-6.519411120605469,-0.01305666157980491,-0.08300306290018834,-0.016254211354451008,6.7817807980796125,1.299082925886073,-6.475408655025253,-0.0025868955558033947,-0.07524945249514799,-0.01922367665655319,6.770802294921874,1.3192051147460937,-6.48589229736328,-0.01305666157980491,-0.08193721297530632,-0.02105053601642016,6.778179685026993,1.3236678509327502,-6.458588298573523,-0.00796947911539965,-0.07747987950818874,-0.018451257541098127,6.789955908203124,1.3359645263671873,-6.519411120605469,-0.01305666157980491,-0.08300306290018834,-0.016254211354451008,0.9561680126780868,0.26989751422593217,-0.041878044447049685,0.10556653228742405
4,1470.0,6.794744311523437,1.2593500732421874,-6.423643054199219,-0.018252679963604822,-0.08193721297530632,-0.02624655440022007,6.784373500768378,1.2911363553572959,-6.465055534860047,-0.00572005243736368,-0.07658700459117966,-0.020628252205286565,6.770802294921874,1.3215993164062498,-6.48589229736328,-0.01305666157980491,-0.08300306290018834,-0.018785604926045838,6.779664934727579,1.333331691978868,-6.459710042286938,-0.009270961682322823,-0.07926450449205248,-0.016132093290391794,6.794744311523437,1.2593500732421874,-6.423643054199219,-0.018252679963604822,-0.08193721297530632,-0.02624655440022007,0.9559816604265104,0.2704017926349362,-0.04302801311971535,0.10550130593956933
4,1480.0,6.6271501953125,1.3215993164062498,-6.49307490234375,-0.02011791733214838,-0.08886523748703953,-0.02105053601642016,6.752928839677203,1.2972289475670868,-6.470659408356789,-0.00859962541632062,-0.07904265117035164,-0.020712708967513285,6.789955908203124,1.3359645263671873,-6.449979272460937,-0.01305666157980491,-0.08886523748703953,-0.016254211354451008,6.782735426074405,1.342753532831883,-6.461462029268236,-0.010158861159340421,-0.08120197216801112,-0.013471212699190072,6.794744311523437,1.3215993164062498,-6.49307490234375,-0.02011791733214838,-0.08886523748703953,-0.02105053601642016,0.9557890306866224,0.27091321401565116,-0.04420830251449592,0.1054465991847231
4,1490.0,6.766013891601562,1.4053963745117186,-6.382941625976562,-0.010658499248820334,-0.0909969373368036,-0.005329249624410167,6.7555458500620755,1.3188624329560135,-6.453115851880744,-0.009011400182820564,-0.08143350840364204,-0.017636017098892662,6.794744311523437,1.4053963745117186,-6.449979272460937,-0.012656967857974146,-0.08886523748703953,-0.005329249624410167,6.787438936855324,1.351050225238629,-6.464114999140335,-0.010588913990793548,-0.08310136932996337,-0.010626192360238419,6.766013891601562,1.4053963745117186,-6.382941625976562,-0.010658499248820334,-0.0909969373368036,-0.005329249624410167,0.9555743301353614,0.2714621111691031,-0.04541789561825151,0.10546675563218262
4,1500.0,6.864176159667968,1.429338391113281,-6.449979272460937,-0.012656967857974146,-0.08886523748703953,0.006794793271122963,6.777271911983254,1.340957624587467,-6.452488535996783,-0.009740513717851281,-0.08291985422032154,-0.012749855024889538,6.766013891601562,1.4053963745117186,-6.449979272460937,-0.012656967857974146,-0.08886523748703953,-0.004663093421358896,6.79327185342833,1.3572624175064987,-6.467791007479508,-0.010581750118270863,-0.08483333212426265,-0.0077847954627157405,6.864176159667968,1.429338391113281,-6.449979272460937,-0.012656967857974146,-0.08886523748703953,0.006794793271122963,0.9553549583878144,0.2719961889381902,-0.04663518181630922,0.10554684506832593
4,1510.0,6.842628344726562,1.429338391113281,-6.5026517089843745,-0.012656967857974146,-0.08566768771239343,0.0014655436467127959,6.790343198531916,1.35863377789263,-6.462521170594302,-0.010323804545875854,-0.08346942091873592,-0.009906775290569072,6.828263134765624,1.4053963745117186,-6.449979272460937,-0.010658499248820334,-0.08819908128398826,-0.002398162330984575,6.799473158201758,1.3607607318376553,-6.472336740784422,-0.010195755266866413,-0.08632901256089633,-0.005099398269082232,6.842628344726562,1.429338391113281,-6.5026517089843745,-0.012656967857974146,-0.08566768771239343,0.0014655436467127959,0.9551369701709844,0.2725317493591739,-0.047827973118974916,0.10560444494030954
4,1520.0,6.76122548828125,1.3862427612304686,-6.421248852539062,-0.010658499248820334,-0.08819908128398826,-0.004663093421358896,6.784519656481783,1.3641555745601979,-6.454266706983254,-0.010390743486464751,-0.0844153529917864,-0.008858038916727037,6.828263134765624,1.3862427612304686,-6.469132885742187,-0.010658499248820334,-0.08819908128398826,0.0014655436467127959,6.805478491499161,1.361499606907973,-6.477388180453146,-0.0095105105819238,-0.08755822145779234,-0.002643510679883752,6.76122548828125,1.3862427612304686,-6.421248852539062,-0.010658499248820334,-0.08819908128398826,-0.004663093421358896,0.9549177091808917,0.2730770497275654,-0.049024930126458886,0.10562977719801588
4,1530.0,6.828263134765624,1.3814543579101561,-6.469132885742187,-0.003863705977697371,-0.08540122523117293,-0.002398162330984575,6.7932683521385515,1.3676153312301897,-6.457239942735041,-0.009085335984711276,-0.08461252743966372,-0.007566063599578544,6.828263134765624,1.3814543579101561,-6.488286499023437,-0.003863705977697371,-0.08819908128398826,0.0014655436467127959,6.810950933425456,1.35998383173637,-6.482450160877653,-0.00862005407512505,-0.08850305137176864,-0.00043214352423600266,6.828263134765624,1.3814543579101561,-6.469132885742187,-0.003863705977697371,-0.08540122523117293,-0.002398162330984575,0.9546874446512594,0.2736502681108517,-0.050209347878352836,0.10567135455618172
4,1540.0,6.801926916503906,1.3263877197265623,-6.488286499023437,-0.0037304747370871167,-0.09113016857741385,0.0035972434964768626,6.795000065011623,1.3593698089294644,-6.463449253992721,-0.008014363735186445,-0.08591605566721375,-0.005333402180367463,6.828263134765624,1.3455413330078123,-6.488286499023437,-0.003863705977697371,-0.09113016857741385,0.002398162330984575,6.815574713252426,1.3570643363347856,-6.486848031643006,-0.007615841937233416,-0.08914233029686977,0.0015341162437585562,6.801926916503906,1.3263877197265623,-6.488286499023437,-0.0037304747370871167,-0.09113016857741385,0.0035972434964768626,0.9544511014194313,0.27422313272646237,-0.05143080152378206,0.10573382207950571
4,1550.0,6.866570361328125,1.2832920898437499,-6.586448767089843,-0.0013323124061025418,-0.09232924974290614,0.007860643196004996,6.809314124274923,1.3441542651123215,-6.488049156612146,-0.006677953469369664,-0.08719869448235223,-0.002694593105092971,6.828263134765624,1.3263877197265623,-6.488286499023437,-0.003863705977697371,-0.0912633998180241,0.002398162330984575,6.819010766991225,1.3536570575146796,-6.48979906673646,-0.006562738614409474,-0.08945118636980853,0.0032543980194803786,6.866570361328125,1.2832920898437499,-6.586448767089843,-0.0013323124061025418,-0.09232924974290614,0.007860643196004996,0.9542076945678349,0.2748037952415126,-0.05266459668534051,0.10581583059433289
4,1560.0,6.864176159667968,1.3455413330078123,-6.53138212890625,-0.005196018383799913,-0.0912633998180241,0.002398162330984575,6.820286531353532,1.3444316786914197,-6.496715751070966,-0.006381566452255715,-0.0880116355494866,-0.001676042017877462,6.830657336425781,1.3263877197265623,-6.53138212890625,-0.005196018383799913,-0.0912633998180241,0.0035972434964768626,6.821031095397457,1.3504515111235162,-6.490725988690555,-0.0054863398989328654,-0.08941325758865036,0.004739522583977651,6.864176159667968,1.3455413330078123,-6.53138212890625,-0.005196018383799913,-0.0912633998180241,0.002398162330984575,0.9539706144746413,0.27536841050591254,-0.05388564319388472,0.10587087735493579
4,1570.0,6.792350109863281,1.2928688964843749,-6.411672045898437,-0.008660030639666522,-0.09272894346473691,0.0011990811654922875,6.814699247055482,1.3341191222500108,-6.479707010036462,-0.006837259289737876,-0.08895509713253667,-0.0011010173812035123,6.830657336425781,1.3287819213867187,-6.53138212890625,-0.007061255752343471,-0.0912633998180241,0.006128637068071692,6.821653974559019,1.3477609243827096,-6.4894650675049075,-0.004381681231644701,-0.08903308336389568,0.0060127359425687765,6.792350109863281,1.2928688964843749,-6.411672045898437,-0.008660030639666522,-0.09272894346473691,0.0011990811654922875,0.9537377833770655,0.27591255049400093,-0.05511704467104916,0.1059179702676865
4,1580.0,6.830657336425781,1.3287819213867187,-6.579266162109374,-0.008526799399056267,-0.08993108741192157,0.006128637068071692,6.817890864929542,1.3330516820773526,-6.499618840451045,-0.007175167311601555,-0.08915029518841365,0.0003449135086515285,6.828263134765624,1.3455413330078123,-6.528987927246093,-0.007061255752343471,-0.0912633998180241,0.006128637068071692,6.821103960755663,1.3455348467698642,-6.486113070529773,-0.0032411865104492858,-0.08834098789384323,0.007088615865586222,6.830657336425781,1.3287819213867187,-6.579266162109374,-0.008526799399056267,-0.08993108741192157,0.006128637068071692,0.9534999342041081,0.2764599480999501,-0.05633721701175111,0.10599004929098425
4,1590.0,6.828263134765624,1.369483349609375,-6.528987927246093,-0.007061255752343471,-0.08646707515605495,0.006261868308681946,6.8199653188967595,1.3403380155837572,-6.505492657810055,-0.0071523849997499386,-0.08861365118194192,0.0015283044686576121,6.828263134765624,1.369483349609375,-6.442796667480469,-0.007327718233563979,-0.08993108741192157,0.006261868308681946,6.8196629575786485,1.3434331539124948,-6.4809009392496115,-0.0020858469850865927,-0.08739113921230024,0.0079570869396618,6.828263134765624,1.369483349609375,-6.528987927246093,-0.007061255752343471,-0.08646707515605495,0.006261868308681946,0.9532591460748604,0.2770127248478526,-0.057539114481135294,0.10606696470495777
4,1600.0,6.789955908203124,1.3862427612304686,-6.442796667480469,-0.0010658499248820334,-0.09299540594595741,0.007327718233563979,6.8139634367580335,1.3495189647130994,-6.492953459744138,-0.005935077984776358,-0.08949000213474502,0.002688187221638886,6.828263134765624,1.369483349609375,-6.528987927246093,-0.007061255752343471,-0.0892649312088703,0.007327718233563979,6.817606575668005,1.341005245028583,-6.474342294814646,-0.000979775587745027,-0.08625609143605359,0.008585800191965138,6.789955908203124,1.3862427612304686,-6.442796667480469,-0.0010658499248820334,-0.09299540594595741,0.007327718233563979,0.9530059860257308,0.27759636778022506,-0.058770153469224685,0.10614102060727704
4,1610.0,6.83783994140625,1.3766659545898436,-6.402095239257812,-0.007327718233563979,-0.0892649312088703,0.010258805526989571,6.818738737687677,1.3549483626884484,-6.474781815646873,-0.006213606034533883,-0.08944498794957008,0.004202310882709023,6.823474731445312,1.369483349609375,-6.442796667480469,-0.0025313935715948295,-0.08646707515605495,0.009992343045769063,6.815193154715896,1.3379603921091463,-6.467197475187941,-2.6679219569040656e-05,-0.085030866306585,0.008928230888800183,6.83783994140625,1.3766659545898436,-6.402095239257812,-0.007327718233563979,-0.0892649312088703,0.010258805526989571,0.952760242125224,0.27814244767727,-0.05999368500257329,0.10623303434146067
4,1620.0,6.789955908203124,1.3120225097656248,-6.562506750488281,0.03384073511500456,-0.08233690669713707,0.010258805526989571,6.812982171790766,1.3463631921038837,-6.492326802615155,0.0017972621953738057,-0.08802337169908349,0.005413609811565133,6.789955908203124,1.3311761230468748,-6.402095239257812,-0.0025313935715948295,-0.08233690669713707,0.010258805526989571,6.812647018906193,1.3343171000871112,-6.46018788875894,0.00065606506270545,-0.08384431524283911,0.008932416826593997,6.789955908203124,1.3120225097656248,-6.562506750488281,-0.002398162330984575,-0.08233690669713707,0.010258805526989571,0.9524568523305781,0.2788833818102794,-0.06116053690369281,0.10634562766865985
4,1630.0,6.823474731445312,1.3311761230468748,-6.399701037597656,-0.0025313935715948295,-0.079672281884932,0.009992343045769063,6.815080683721676,1.3433257782924821,-6.473801649611656,0.0009315310419800787,-0.0863531537362532,0.006329356458405919,6.823474731445312,1.3311761230468748,-6.402095239257812,-0.0025313935715948295,-0.079672281884932,0.010258805526989571,6.810165070181879,1.3303147018693757,-6.453963396383795,0.0010014735758066275,-0.08285186350588664,0.008551431602719787,6.823474731445312,1.3311761230468748,-6.399701037597656,-0.0025313935715948295,-0.079672281884932,0.009992343045769063,0.9522046244288606,0.2794434649442038,-0.06233713477099487,0.10645085600789224
4,1640.0,6.782773303222656,1.2928688964843749,-6.351817004394531,-0.003064318534035846,-0.07420980101991158,0.010924961730040842,6.808619207621872,1.3332344019308606,-6.449404720568232,0.00013236112677689378,-0.08392448319298489,0.007248477512732904,6.789955908203124,1.3287819213867187,-6.399701037597656,-0.0005329249624410167,-0.07554211342601412,0.010924961730040842,6.807915820711333,1.3262154310500196,-6.449178608514271,0.0010379527934399923,-0.08220510870006568,0.007751538468969827,6.782773303222656,1.2928688964843749,-6.351817004394531,-0.003064318534035846,-0.07420980101991158,0.010924961730040842,0.9519532751120655,0.27999475885588887,-0.06349103884426426,0.10656821760318871
4,1650.0,6.835445739746094,1.3335703247070312,-6.4834980957031245,-0.0005329249624410167,-0.06848085767367064,0.012390505376753638,6.813984514046717,1.3333015864860949,-6.456223395595211,-6.960910666883104e-07,-0.08083575808912204,0.00827688308553705,6.79953271484375,1.3311761230468748,-6.37815322265625,-0.002398162330984575,-0.07554211342601412,0.012390505376753638,6.806030393833812,1.3221762435038276,-6.446278187557908,0.0008483112864148515,-0.08201387163776147,0.006520299272175128,6.835445739746094,1.3335703247070312,-6.4834980957031245,-0.0005329249624410167,-0.06848085767367064,0.012390505376753638,0.9516969233912319,0.28055859907963626,-0.06461478463509066,0.1066994287552469
4,1660.0,6.789955908203124,1.3287819213867187,-6.37815322265625,0.0034640122558666085,-0.07554211342601412,0.02011791733214838,6.809178792877999,1.3323976534662199,-6.44060936100742,0.0006922455783199711,-0.07977702915650045,0.010645089934859317,6.792350109863281,1.3287819213867187,-6.37815322265625,-0.002264931090374321,-0.07554211342601412,0.012390505376753638,6.804629014050224,1.3182516333461949,-6.445318407792753,0.0005102405002503204,-0.08231050890845014,0.004886080985739719,6.789955908203124,1.3287819213867187,-6.37815322265625,0.0034640122558666085,-0.07554211342601412,0.002398162330984575,0.9514274129522508,0.28114020205527096,-0.0657818712839843,0.10685883249262068
4,1670.0,6.79953271484375,1.3431471313476562,-6.344634399414062,-0.002398162330984575,-0.08273660041896784,0.014788667707738214,6.807249577271149,1.3345475490425072,-6.421414368688748,7.416399645906183e-05,-0.08036894340899393,0.011473805489435097,6.792350109863281,1.3287819213867187,-6.4834980957031245,-0.0017320061279333043,-0.08167075049408581,0.012390505376753638,6.803848408049996,1.3145002529080374,-6.4459840115443505,8.953707318333093e-05,-0.08303692764562379,0.0029540979290839362,6.79953271484375,1.3431471313476562,-6.344634399414062,-0.002398162330984575,-0.08273660041896784,0.0011990811654922875,0.9511651497157965,0.2816981583260897,-0.06697895632127893,0.10698048874410576
4,1680.0,6.792350109863281,1.3168109130859373,-6.574477758789062,-0.002264931090374321,-0.08167075049408581,-0.03397396635561482,6.804269683789576,1.3310002218511932,-6.452027046708812,-0.00039365502090761475,-0.08062930482601231,0.002384251120425114,6.792350109863281,1.3168109130859373,-6.507440112304687,-0.0017320061279333043,-0.08273660041896784,-0.0014655436467127959,6.803810047000178,1.311103910151864,-6.4475633161480514,-0.0003503747377156257,-0.08406811866027022,0.0009116852946314497,6.792350109863281,1.3168109130859373,-6.574477758789062,-0.002264931090374321,-0.08167075049408581,-0.0014655436467127959,0.9509262290730184,0.282277971886162,-0.06809815754474574,0.1068695203873183
4,1690.0,6.789955908203124,1.2808978881835937,-6.519411120605469,-0.0017320061279333043,-0.0907304748555831,-0.002264931090374321,6.801406928672286,1.3209797551176734,-6.465503861488144,-0.0006613252423127527,-0.08264953883192647,0.001454414678265227,6.79953271484375,1.3048399047851562,-6.507440112304687,-0.0017320061279333043,-0.0907304748555831,-0.002264931090374321,6.804562645120982,1.3083833216899041,-6.449179985755746,-0.0007543321339971727,-0.08524979990793162,-0.001055676171154807,6.789955908203124,1.2808978881835937,-6.519411120605469,-0.0017320061279333043,-0.0907304748555831,-0.002264931090374321,0.9506657618832416,0.28284969135505356,-0.0693077382649313,0.10689760848543974
4,1700.0,6.806715319824218,1.2521674682617188,-6.507440112304687,-0.0013323124061025418,-0.10165543658562394,-0.0014655436467127959,6.802468606902673,1.3072172977464827,-6.473891111651453,-0.0007955226750707106,-0.08645071838266596,0.0008704230132696223,6.806715319824218,1.2928688964843749,-6.507440112304687,-0.0017320061279333043,-0.0907304748555831,-0.003064318534035846,6.80605519805217,1.306656013350477,-6.450352208036156,-0.001081423161207806,-0.08643699478241988,-0.0028570182030175813,6.806715319824218,1.2521674682617188,-6.507440112304687,-0.0013323124061025418,-0.10165543658562394,-0.0014655436467127959,0.9503994019054124,0.2834250996863877,-0.07057230001508842,0.10691463976545063
4,1710.0,6.813897924804687,1.3048399047851562,-6.449979272460937,-0.0017320061279333043,-0.09166309353985487,-0.003064318534035846,6.8047544704830765,1.3067418191542175,-6.46910874381335,-0.0009828193656432295,-0.08749319341410375,8.347470380852876e-05,6.806715319824218,1.2928688964843749,-6.449979272460937,-0.0017320061279333043,-0.0907304748555831,-0.003064318534035846,6.8081552634512015,1.3060302206774481,-6.451261921872919,-0.0013017143238796625,-0.08754009844296033,-0.004481908975375991,6.813897924804687,1.3048399047851562,-6.449979272460937,-0.0017320061279333043,-0.09166309353985487,-0.003064318534035846,0.9501360679255225,0.2839942011204591,-0.07178588676314895,0.10693704979382752
4,1720.0,6.811503723144531,1.2928688964843749,-6.289567761230469,-0.0013323124061025418,-0.08366921910323961,-0.004130168458917879,6.8061043210153676,1.303967234620249,-6.4332005472967735,-0.001052717973735092,-0.08672839855193093,-0.000759253928736753,6.811503723144531,1.2928688964843749,-6.449979272460937,-0.0017320061279333043,-0.08833231252459851,-0.004130168458917879,6.8107038708896885,1.3063313832412176,-6.452457530037424,-0.0013909314070297575,-0.08854656286164912,-0.005934955832967049,6.811503723144531,1.2928688964843749,-6.289567761230469,-0.0013323124061025418,-0.08366921910323961,-0.004130168458917879,0.94987527565495,0.28455452034845324,-0.07296370071383615,0.10696721005446687
4,1730.0,6.775590698242187,1.3407529296874998,-6.449979272460937,-0.00479632466196915,-0.0848683002687319,-0.005595712105630675,6.800001596460732,1.3113243736336992,-6.436556292329606,-0.0018014393113819037,-0.08635637889529113,-0.0017265455641155376,6.813897924804687,1.2928688964843749,-6.449979272460937,-0.004663093421358896,-0.08833231252459851,-0.005595712105630675,6.813534338310642,1.3072132128752538,-6.454257775869387,-0.0013297055810732959,-0.08948598056531348,-0.007207115121445115,6.775590698242187,1.3407529296874998,-6.449979272460937,-0.00479632466196915,-0.0848683002687319,-0.005595712105630675,0.9496160927918151,0.2851088434986341,-0.07413962453076849,0.10698382935806189
4,1740.0,6.847416748046874,1.2928688964843749,-6.476315490722656,-0.00479632466196915,-0.08833231252459851,-0.014522205226517705,6.809484626777961,1.3076332782038345,-6.444508132008217,-0.002400416381499353,-0.0867515656211526,-0.004285677496595971,6.813897924804687,1.2928688964843749,-6.476315490722656,-0.004663093421358896,-0.08833231252459851,-0.008393568158446012,6.816421868954613,1.3083160093949568,-6.456400832957433,-0.0011107330011086397,-0.09037657369743572,-0.008277958138912406,6.847416748046874,1.2928688964843749,-6.476315490722656,-0.00479632466196915,-0.08833231252459851,-0.014522205226517705,0.9493599019721011,0.2856622681526188,-0.07532326834940395,0.10695443107505072
4,1750.0,6.87614716796875,1.2904746948242187,-6.505045910644531,-0.004663093421358896,-0.08939816244948055,-0.008393568158446012,6.82281713501612,1.3042015615279112,-6.45661568773548,-0.0028529517894712616,-0.0872808849868182,-0.00510725562896598,6.813897924804687,1.3311761230468748,-6.476315490722656,-0.004663093421358896,-0.08939816244948055,-0.01052526800821008,6.819117934936233,1.3093213306513738,-6.458277453525758,-0.000751660704460174,-0.09120316520309793,-0.009130790766107472,6.87614716796875,1.2904746948242187,-6.505045910644531,-0.004663093421358896,-0.08939816244948055,-0.008393568158446012,0.9490983316351613,0.28621340793635425,-0.07652084053228676,0.10695233970813145
